"title","names","condition","trial_type","trial_index","time_elapsed","internal_node_id","sessionCode","X","fullStat","name1","relation","timeDrag","ndrags","rel_sol","name1_sol","name2","name2_sol","statIdx","stoIdx","name1_cor","name2_cor","rel_cor","first","overall_cor","uniqueStatement"
"insect","Lothe,Upel,Misug,Puvi,Ribi,Wecin","burns","hebb",4,216945,"0.0-4.0-0.0","0p5lpvlclyr2",NA,"Perfume Lothe attracts insect Upel.","Lothe","attacks",17289,3,"attracts","Lothe","Upel","Upel","1",2,TRUE,TRUE,FALSE,0,0.666666666666667,"insect1"
"insect","Lothe,Upel,Misug,Puvi,Ribi,Wecin","burns","hebb",4,216945,"0.0-4.0-0.0","0p5lpvlclyr2",NA,"Insect Upel attacks woman Misug.","Upel","attacks",14122,4,"attacks","Upel","Misug","Misug","2",2,TRUE,TRUE,TRUE,0,1,"insect2"
"insect","Lothe,Upel,Misug,Puvi,Ribi,Wecin","burns","hebb",4,216945,"0.0-4.0-0.0","0p5lpvlclyr2",NA,"Woman Misug has an allergic reaction.","Misug","has an allergic reaction",13240,2,"has an allergic reaction","Misug",NA,NA,"3",2,TRUE,NA,TRUE,0,1,"insect3"
"fish","Ohan,Wutoc,Kesal,Ebib,Goxos,Afi","burns","hebb",5,268356,"0.0-4.0-1.0","0p5lpvlclyr2",NA,"Fisher Ohan cultivates sea grass Wutoc.","Ohan","cultivates",19645,3,"cultivates","Ohan","Wutoc","Wutoc","1",3,TRUE,TRUE,TRUE,0,1,"fish1"
"fish","Ohan,Wutoc,Kesal,Ebib,Goxos,Afi","burns","hebb",5,268356,"0.0-4.0-1.0","0p5lpvlclyr2",NA,"Sea grass Wutoc is eaten by fish Kesal.","Wutoc","is eaten by",13610,3,"is eaten by","Wutoc","Kesal","Kesal","2",3,TRUE,TRUE,TRUE,0,1,"fish2"
"fish","Ohan,Wutoc,Kesal,Ebib,Goxos,Afi","burns","hebb",5,268356,"0.0-4.0-1.0","0p5lpvlclyr2",NA,"Fish Kesal is captured.","Kesal","is captured",7627,2,"is captured","Kesal",NA,NA,"3",3,TRUE,NA,TRUE,0,1,"fish3"
"school","Ilres,Gelyp,Vilux,Idog,Titho,Rivo","burns","hebb",6,326339,"0.0-4.0-2.0","0p5lpvlclyr2",NA,"School girl Ilres beats boy Gelyp.","Ilres","beats",19041,3,"beats","Ilres","Gelyp","Gelyp","1",4,TRUE,TRUE,TRUE,0,1,"school1"
"school","Ilres,Gelyp,Vilux,Idog,Titho,Rivo","burns","hebb",6,326339,"0.0-4.0-2.0","0p5lpvlclyr2",NA,"Boy Gelyp reports to teacher Vilux.","Gelyp","reports to",14912,3,"reports to","Gelyp","Vilux","Vilux","2",4,TRUE,TRUE,TRUE,0,1,"school2"
"school","Ilres,Gelyp,Vilux,Idog,Titho,Rivo","burns","hebb",6,326339,"0.0-4.0-2.0","0p5lpvlclyr2",NA,"Teacher Vilux calls parents.","Vilux","visits parents",13501,2,"calls parents","Vilux",NA,NA,"3",4,TRUE,NA,FALSE,0,0.5,"school3"
"farm","Zishu,Zimob,Saly,Potho,Afik,Vuloz","fillers","hebb",7,385839,"0.0-4.0-3.0","0p5lpvlclyr2",NA,"Farmer Zishu purchases machine Zimob.","Zishu","purchases",23328,4,"purchases","Zishu","Zimob","Zimob","1",5,TRUE,TRUE,TRUE,0,1,"farm1"
"farm","Zishu,Zimob,Saly,Potho,Afik,Vuloz","fillers","hebb",7,385839,"0.0-4.0-3.0","0p5lpvlclyr2",NA,"Machine Zimob can collect fruit of plant Saly.","Zimob","can collect",15402,3,"can collect","Zimob","Saly","Saly","2",5,TRUE,TRUE,TRUE,0,1,"farm2"
"farm","Zishu,Zimob,Saly,Potho,Afik,Vuloz","fillers","hebb",7,385839,"0.0-4.0-3.0","0p5lpvlclyr2",NA,"Plant Saly are harvested automatically.","Saly","are harvested automatically",10247,2,"are harvested automatically","Saly",NA,NA,"3",5,TRUE,NA,TRUE,0,1,"farm3"
"employee","Diaf,Uyim,Lenik,Molash,Matmag,Igoth","fillers","hebb",8,436834,"0.0-4.0-4.0","0p5lpvlclyr2",NA,"Employee Diaf is assigned to project Uyim.","Diaf","is assigned to",19081,3,"is assigned to","Diaf","Uyim","Uyim","1",6,TRUE,TRUE,TRUE,0,1,"employee1"
"employee","Diaf,Uyim,Lenik,Molash,Matmag,Igoth","fillers","hebb",8,436834,"0.0-4.0-4.0","0p5lpvlclyr2",NA,"Project Uyim supports agenda of manager Lenik.","Uyim","supports sth. of",11433,3,"supports sth. of","Uyim","Lenik","Lenik","2",6,TRUE,TRUE,TRUE,0,1,"employee2"
"employee","Diaf,Uyim,Lenik,Molash,Matmag,Igoth","fillers","hebb",8,436834,"0.0-4.0-4.0","0p5lpvlclyr2",NA,"Manager Lenik gets a promotion.","Lenik","gets a promotion",9951,2,"gets a promotion","Lenik",NA,NA,"3",6,TRUE,NA,TRUE,0,1,"employee3"
"lawyer","Mabi,Aid,Vivaf,Soav,Zidep,Awiz","analogues","hebb",9,496962,"0.0-4.0-5.0","0p5lpvlclyr2",NA,"Lawyer Mabi finds loophole Aid.","Aid","finds",28176,3,"finds","Mabi","Mabi","Aid","1",7,FALSE,FALSE,TRUE,0,0.333333333333333,"lawyer1"
"lawyer","Mabi,Aid,Vivaf,Soav,Zidep,Awiz","analogues","hebb",9,496962,"0.0-4.0-5.0","0p5lpvlclyr2",NA,"Loophole Aid bypasses contract of union Vivaf.","Mabi","bypasses sth. of",14076,3,"bypasses sth. of","Aid","Vivaf","Vivaf","2",7,FALSE,TRUE,TRUE,0,0.666666666666667,"lawyer2"
"lawyer","Mabi,Aid,Vivaf,Soav,Zidep,Awiz","analogues","hebb",9,496962,"0.0-4.0-5.0","0p5lpvlclyr2",NA,"Union Vivaf loses a lawsuit.","Vivaf","loses sth.",7359,2,"loses sth.","Vivaf",NA,NA,"3",7,TRUE,NA,TRUE,0,1,"lawyer3"
"fox","Pide,Vipal,Turow,Uvman,Dohod,Ohuy","analogues","hebb",10,558342,"0.0-4.0-6.0","0p5lpvlclyr2",NA,"Fox Pide digs tunnel Vipal.","Pide","digs",29284,3,"digs","Pide","Vipal","Vipal","1",8,TRUE,TRUE,TRUE,0,1,"fox1"
"fox","Pide,Vipal,Turow,Uvman,Dohod,Ohuy","analogues","hebb",10,558342,"0.0-4.0-6.0","0p5lpvlclyr2",NA,"Tunnel Vipal leads to coop of chicken Turow.","Vipal","leads to sth. of",13126,3,"leads to sth. of","Vipal","Turow","Turow","2",8,TRUE,TRUE,TRUE,0,1,"fox2"
"fox","Pide,Vipal,Turow,Uvman,Dohod,Ohuy","analogues","hebb",10,558342,"0.0-4.0-6.0","0p5lpvlclyr2",NA,"Chicken Turow is devoured.","Turow","is devoured",8430,3,"is devoured","Turow",NA,NA,"3",8,TRUE,NA,TRUE,0,1,"fox3"
"pump","Hoyl,Enmob,Huluw,Ewey,Olag,Hoap","fillers","hebb",11,610045,"0.0-4.0-7.0","0p5lpvlclyr2",NA,"Plumber Hoyl installs pump Enmob.","Hoyl","installs",21375,3,"installs","Hoyl","Enmob","Enmob","1",9,TRUE,TRUE,TRUE,0,1,"pump1"
"pump","Hoyl,Enmob,Huluw,Ewey,Olag,Hoap","fillers","hebb",11,610045,"0.0-4.0-7.0","0p5lpvlclyr2",NA,"Pump Enmob sucks water from ground Huluw.","Enmob","sucks sth. from",12521,3,"sucks sth. from","Enmob","Huluw","Huluw","2",9,TRUE,TRUE,TRUE,0,1,"pump2"
"pump","Hoyl,Enmob,Huluw,Ewey,Olag,Hoap","fillers","hebb",11,610045,"0.0-4.0-7.0","0p5lpvlclyr2",NA,"Ground Huluw dries up.","Huluw","dries up",7281,2,"dries up","Huluw",NA,NA,"3",9,TRUE,NA,TRUE,0,1,"pump3"
"neighbor","Ahow,Assit,Ihab,Yoges,Ezol,Upum","fillers","hebb",12,681318,"0.0-4.0-8.0","0p5lpvlclyr2",NA,"Man Ahow takes care of cat Assit.","Ezol","takes care of",38192,3,"takes care of","Ahow","Assit","Assit","1",10,FALSE,TRUE,TRUE,0,0.666666666666667,"neighbor1"
"neighbor","Ahow,Assit,Ihab,Yoges,Ezol,Upum","fillers","hebb",12,681318,"0.0-4.0-8.0","0p5lpvlclyr2",NA,"Cat Assit walks over the flowers of neighbor Ihab","Assit","walks over sth. of",14515,3,"walks over sth. of","Assit","Ihab","Ihab","2",10,TRUE,TRUE,TRUE,0,1,"neighbor2"
"neighbor","Ahow,Assit,Ihab,Yoges,Ezol,Upum","fillers","hebb",12,681318,"0.0-4.0-8.0","0p5lpvlclyr2",NA,"Neighbor Ihab gets angry.","Ihab","gets angry",8039,2,"gets angry","Ihab",NA,NA,"3",10,TRUE,NA,TRUE,0,1,"neighbor3"
"hacker","Orok,Dugoz,Olef,Mewep,Ottha,Itbob","analogues","hebb",13,733798,"0.0-4.0-9.0","0p5lpvlclyr2",NA,"Hacker Orok writes computer code Dugoz.","Olef","writes",19343,3,"writes","Orok","Orok","Dugoz","1",11,FALSE,FALSE,TRUE,0,0.333333333333333,"hacker1"
"hacker","Orok,Dugoz,Olef,Mewep,Ottha,Itbob","analogues","hebb",13,733798,"0.0-4.0-9.0","0p5lpvlclyr2",NA,"Code Dugoz cracks the firewall of company Olef.","Orok","cracks sth. of",13440,3,"cracks sth. of","Dugoz","Olef","Olef","2",11,FALSE,TRUE,TRUE,0,0.666666666666667,"hacker2"
"hacker","Orok,Dugoz,Olef,Mewep,Ottha,Itbob","analogues","hebb",13,733798,"0.0-4.0-9.0","0p5lpvlclyr2",NA,"Company Olef suffers a data loss.","Olef","suffers sth.",9167,2,"suffers sth.","Olef",NA,NA,"3",11,TRUE,NA,TRUE,0,1,"hacker3"
"crusader","Hize,Reok,Felac,Newi,Evib,Eshbu","analogues","hebb",14,790005,"0.0-4.0-10.0","0p5lpvlclyr2",NA,"Crusader group Hize buys weapon Reok.","Hize","buys",23039,3,"buys","Hize","Reok","Reok","1",12,TRUE,TRUE,TRUE,0,1,"crusader1"
"crusader","Hize,Reok,Felac,Newi,Evib,Eshbu","analogues","hebb",14,790005,"0.0-4.0-10.0","0p5lpvlclyr2",NA,"Weapon Reok breaches the fortification of town Felac.","Reok","breaches sth. of",12566,3,"breaches sth. of","Reok","Felac","Felac","2",12,TRUE,TRUE,TRUE,0,1,"crusader2"
"crusader","Hize,Reok,Felac,Newi,Evib,Eshbu","analogues","hebb",14,790005,"0.0-4.0-10.0","0p5lpvlclyr2",NA,"Town Felac is invaded.","Felac","is invaded",10078,2,"is invaded","Felac",NA,NA,"3",12,TRUE,NA,TRUE,0,1,"crusader3"
"meteo","Fozeh,Ena,Thusoth,Thisun,Romap,Ubug","burns","hebb",16,939969,"0.0-4.0-12.0","0p5lpvlclyr2",NA,"Cloud Fozeh collects humidity over ocean Ena.","Thisun","lies above",80495,7,"collects humidity over","Fozeh","Ena","Ena","1",14,FALSE,TRUE,FALSE,0,0.333333333333333,"meteo1"
"meteo","Fozeh,Ena,Thusoth,Thisun,Romap,Ubug","burns","hebb",16,939969,"0.0-4.0-12.0","0p5lpvlclyr2",NA,"Ocean Ena lies next to the beaches of area Thusoth.","Ena","lies next to",21108,3,"lies next to","Ena","Thusoth","Thusoth","2",14,TRUE,TRUE,TRUE,0,1,"meteo2"
"meteo","Fozeh,Ena,Thusoth,Thisun,Romap,Ubug","burns","hebb",16,939969,"0.0-4.0-12.0","0p5lpvlclyr2",NA,"Area Thusoth is fertile.","Thusoth","is fertile",16332,3,"is fertile","Thusoth",NA,NA,"3",14,TRUE,NA,TRUE,0,1,"meteo3"
"mining","Yuxeh,Owmi,Uwit,Pobat,Thygef,Wehif","fillers","hebb",17,1002914,"0.0-4.0-13.0","0p5lpvlclyr2",NA,"Mining company Yuxeh has a lot of resource Owmi.","Yuxeh","has a lot of",24242,3,"has a lot of","Yuxeh","Owmi","Owmi","1",15,TRUE,TRUE,TRUE,0,1,"mining1"
"mining","Yuxeh,Owmi,Uwit,Pobat,Thygef,Wehif","fillers","hebb",17,1002914,"0.0-4.0-13.0","0p5lpvlclyr2",NA,"Resource Owmi is sparse in country Uwit.","Owmi","is sparse in",16096,3,"is sparse in","Owmi","Uwit","Uwit","2",15,TRUE,TRUE,TRUE,0,1,"mining2"
"mining","Yuxeh,Owmi,Uwit,Pobat,Thygef,Wehif","fillers","hebb",17,1002914,"0.0-4.0-13.0","0p5lpvlclyr2",NA,"Country Uwit starts negotiating.","Uwit","starts negotiating",12074,3,"starts negotiating","Uwit",NA,NA,"3",15,TRUE,NA,TRUE,0,1,"mining3"
"storm","Henu,Meuf,Pishi,Roze,Thyra,Owih","fillers","hebb",18,1058736,"0.0-4.0-14.0","0p5lpvlclyr2",NA,"Storm Henu hits tree Meuf.","Henu","hits",21423,3,"hits","Henu","Meuf","Meuf","1",16,TRUE,TRUE,TRUE,0,1,"storm1"
"storm","Henu,Meuf,Pishi,Roze,Thyra,Owih","fillers","hebb",18,1058736,"0.0-4.0-14.0","0p5lpvlclyr2",NA,"Tree Meuf falls on trail of route Pishi.","Meuf","falls on",11873,3,"falls on","Meuf","Pishi","Pishi","2",16,TRUE,TRUE,TRUE,0,1,"storm2"
"storm","Henu,Meuf,Pishi,Roze,Thyra,Owih","fillers","hebb",18,1058736,"0.0-4.0-14.0","0p5lpvlclyr2",NA,"Route Pishi is blocked.","Pishi","is blocked",12001,2,"is blocked","Pishi",NA,NA,"3",16,TRUE,NA,TRUE,0,1,"storm3"
"bacteria","Eefar,Eyem,Epnux,Upno,Eshov,Hosen","analogues","hebb",19,1123216,"0.0-4.0-15.0","0p5lpvlclyr2",NA,"Bacteria Eefar emits enzyme Eyem.","Eefar","emits",21846,3,"emits","Eefar","Eyem","Eyem","1",17,TRUE,TRUE,TRUE,0,1,"bacteria1"
"bacteria","Eefar,Eyem,Epnux,Upno,Eshov,Hosen","analogues","hebb",19,1123216,"0.0-4.0-15.0","0p5lpvlclyr2",NA,"Enzyme Eyem dissolves the membrane of organ Epnux.","Eyem","dissolves sth. of",20661,3,"dissolves sth. of","Eyem","Upno","Epnux","2",17,TRUE,FALSE,TRUE,0,0.666666666666667,"bacteria2"
"bacteria","Eefar,Eyem,Epnux,Upno,Eshov,Hosen","analogues","hebb",19,1123216,"0.0-4.0-15.0","0p5lpvlclyr2",NA,"Organ Epnux fails.","Upno","fails",11444,3,"fails","Epnux",NA,NA,"3",17,FALSE,NA,TRUE,0,0.5,"bacteria3"
"robber","Niem,Rothuk,Ofpoz,Zugew,Lyde,Thuha","analogues","hebb",20,1180444,"0.0-4.0-16.0","0p5lpvlclyr2",NA,"Criminal Niem learns about security issue Rothuk.","Niem","learns about",20733,3,"learns about","Niem","Rothuk","Rothuk","1",18,TRUE,TRUE,TRUE,0,1,"robber1"
"robber","Niem,Rothuk,Ofpoz,Zugew,Lyde,Thuha","analogues","hebb",20,1180444,"0.0-4.0-16.0","0p5lpvlclyr2",NA,"Security issue Rothuk suspends alarm system of museum Ofpoz.","Rothuk","suspends sth. of",12735,3,"suspends sth. of","Rothuk","Ofpoz","Ofpoz","2",18,TRUE,TRUE,TRUE,0,1,"robber2"
"robber","Niem,Rothuk,Ofpoz,Zugew,Lyde,Thuha","analogues","hebb",20,1180444,"0.0-4.0-16.0","0p5lpvlclyr2",NA,"Museum Ofpoz gets robbed.","Ofpoz","gets robbed",13221,2,"gets robbed","Ofpoz",NA,NA,"3",18,TRUE,NA,TRUE,0,1,"robber3"
"meteo","Dugoz,Hosen,Saly,Owmi,Kesal,Reok","burns","hebb",4,105429,"0.0-4.0-0.0","0rn21efqotza",NA,"Cloud Dugoz collects humidity over ocean Hosen.","Dugoz","collects humidity over",22349,3,"collects humidity over","Dugoz","Hosen","Hosen","1",2,TRUE,TRUE,TRUE,0,1,"meteo1"
"meteo","Dugoz,Hosen,Saly,Owmi,Kesal,Reok","burns","hebb",4,105429,"0.0-4.0-0.0","0rn21efqotza",NA,"Ocean Hosen lies next to the beaches of area Saly.","Hosen","lies next to",16840,3,"lies next to","Hosen","Saly","Saly","2",2,TRUE,TRUE,TRUE,0,1,"meteo2"
"meteo","Dugoz,Hosen,Saly,Owmi,Kesal,Reok","burns","hebb",4,105429,"0.0-4.0-0.0","0rn21efqotza",NA,"Area Saly is fertile.","Saly","is fertile",19135,2,"is fertile","Saly",NA,NA,"3",2,TRUE,NA,TRUE,0,1,"meteo3"
"fish","Thisun,Thusoth,Olag,Inag,Hadith,Molash","burns","hebb",5,176724,"0.0-4.0-1.0","0rn21efqotza",NA,"Fisher Thisun cultivates sea grass Thusoth.","Thisun","cultivates",28821,4,"cultivates","Thisun","Thusoth","Thusoth","1",3,TRUE,TRUE,TRUE,0,1,"fish1"
"fish","Thisun,Thusoth,Olag,Inag,Hadith,Molash","burns","hebb",5,176724,"0.0-4.0-1.0","0rn21efqotza",NA,"Sea grass Thusoth is eaten by fish Olag.","Thusoth","is eaten by",17241,3,"is eaten by","Thusoth","Olag","Olag","2",3,TRUE,TRUE,TRUE,0,1,"fish2"
"fish","Thisun,Thusoth,Olag,Inag,Hadith,Molash","burns","hebb",5,176724,"0.0-4.0-1.0","0rn21efqotza",NA,"Fish Olag is captured.","Olag","is captured",14700,2,"is captured","Olag",NA,NA,"3",3,TRUE,NA,TRUE,0,1,"fish3"
"insect","Yuxeh,Puvi,Yoges,Mabi,Mewep,Vilux","burns","hebb",6,242263,"0.0-4.0-2.0","0rn21efqotza",NA,"Perfume Yuxeh attracts insect Puvi.","Yuxeh","attracts",22000,3,"attracts","Yuxeh","Puvi","Puvi","1",4,TRUE,TRUE,TRUE,0,1,"insect1"
"insect","Yuxeh,Puvi,Yoges,Mabi,Mewep,Vilux","burns","hebb",6,242263,"0.0-4.0-2.0","0rn21efqotza",NA,"Insect Puvi attacks woman Yoges.","Puvi","attracts",16799,3,"attacks","Puvi","Yoges","Yoges","2",4,TRUE,TRUE,FALSE,0,0.666666666666667,"insect2"
"insect","Yuxeh,Puvi,Yoges,Mabi,Mewep,Vilux","burns","hebb",6,242263,"0.0-4.0-2.0","0rn21efqotza",NA,"Woman Yoges has an allergic reaction.","Yoges","has an allergic reaction",16231,2,"has an allergic reaction","Yoges",NA,NA,"3",4,TRUE,NA,TRUE,0,1,"insect3"
"hacker","Uhuy,Dohod,Titho,Misug,Rothuk,Owih","analogues","hebb",7,311059,"0.0-4.0-3.0","0rn21efqotza",NA,"Hacker Uhuy writes computer code Dohod.","Uhuy","writes",22326,3,"writes","Uhuy","Dohod","Dohod","1",5,TRUE,TRUE,TRUE,0,1,"hacker1"
"hacker","Uhuy,Dohod,Titho,Misug,Rothuk,Owih","analogues","hebb",7,311059,"0.0-4.0-3.0","0rn21efqotza",NA,"Code Dohod cracks the firewall of company Titho.","Dohod","cracks sth. of",16191,3,"cracks sth. of","Dohod","Titho","Titho","2",5,TRUE,TRUE,TRUE,0,1,"hacker2"
"hacker","Uhuy,Dohod,Titho,Misug,Rothuk,Owih","analogues","hebb",7,311059,"0.0-4.0-3.0","0rn21efqotza",NA,"Company Titho suffers a data loss.","Titho","suffers sth.",19740,2,"suffers sth.","Titho",NA,NA,"3",5,TRUE,NA,TRUE,0,1,"hacker3"
"bacteria","Epnux,Eyem,Huluw,Ribi,Assit,Diaf","analogues","hebb",8,377471,"0.0-4.0-4.0","0rn21efqotza",NA,"Bacteria Epnux emits enzyme Eyem.","Epnux","emits",21558,3,"emits","Epnux","Eyem","Eyem","1",6,TRUE,TRUE,TRUE,0,1,"bacteria1"
"bacteria","Epnux,Eyem,Huluw,Ribi,Assit,Diaf","analogues","hebb",8,377471,"0.0-4.0-4.0","0rn21efqotza",NA,"Enzyme Eyem dissolves the membrane of organ Huluw.","Eyem","dissolves sth. of",18270,3,"dissolves sth. of","Eyem","Huluw","Huluw","2",6,TRUE,TRUE,TRUE,0,1,"bacteria2"
"bacteria","Epnux,Eyem,Huluw,Ribi,Assit,Diaf","analogues","hebb",8,377471,"0.0-4.0-4.0","0rn21efqotza",NA,"Organ Huluw fails.","Huluw","fails",16079,2,"fails","Huluw",NA,NA,"3",6,TRUE,NA,TRUE,0,1,"bacteria3"
"pump","Eshbu,Vuloz,Rove,Hoyl,Lothe,Ihab","fillers","hebb",9,446656,"0.0-4.0-5.0","0rn21efqotza",NA,"Plumber Eshbu installs pump Vuloz.","Eshbu","installs",22068,3,"installs","Eshbu","Vuloz","Vuloz","1",7,TRUE,TRUE,TRUE,0,1,"pump1"
"pump","Eshbu,Vuloz,Rove,Hoyl,Lothe,Ihab","fillers","hebb",9,446656,"0.0-4.0-5.0","0rn21efqotza",NA,"Pump Vuloz sucks water from ground Rove.","Vuloz","sucks sth. from",22160,3,"sucks sth. from","Vuloz","Rove","Rove","2",7,TRUE,TRUE,TRUE,0,1,"pump2"
"pump","Eshbu,Vuloz,Rove,Hoyl,Lothe,Ihab","fillers","hebb",9,446656,"0.0-4.0-5.0","0rn21efqotza",NA,"Ground Rove dries up.","Rove","dries up",14447,2,"dries up","Rove",NA,NA,"3",7,TRUE,NA,TRUE,0,1,"pump3"
"storm","Thuha,Niem,Upel,Olef,Ofes,Eefar","fillers","hebb",10,513252,"0.0-4.0-6.0","0rn21efqotza",NA,"Storm Thuha hits tree Niem.","Thuha","hits",17740,3,"hits","Thuha","Niem","Niem","1",8,TRUE,TRUE,TRUE,0,1,"storm1"
"storm","Thuha,Niem,Upel,Olef,Ofes,Eefar","fillers","hebb",10,513252,"0.0-4.0-6.0","0rn21efqotza",NA,"Tree Niem falls on trail of route Upel.","Niem","falls on",25580,3,"falls on","Niem","Upel","Upel","2",8,TRUE,TRUE,TRUE,0,1,"storm2"
"storm","Thuha,Niem,Upel,Olef,Ofes,Eefar","fillers","hebb",10,513252,"0.0-4.0-6.0","0rn21efqotza",NA,"Route Upel is blocked.","Upel","is blocked",12730,2,"is blocked","Upel",NA,NA,"3",8,TRUE,NA,TRUE,0,1,"storm3"
"robber","Zugew,Goxos,Ebib,Ahow,Zimob,Ottha","analogues","hebb",11,580872,"0.0-4.0-7.0","0rn21efqotza",NA,"Criminal Zugew learns about security issue Goxos.","Zimob","learns about",20041,3,"learns about","Zugew","Goxos","Goxos","1",9,FALSE,TRUE,TRUE,0,0.666666666666667,"robber1"
"robber","Zugew,Goxos,Ebib,Ahow,Zimob,Ottha","analogues","hebb",11,580872,"0.0-4.0-7.0","0rn21efqotza",NA,"Security issue Goxos suspends alarm system of museum Ebib.","Goxos","suspends sth. of",21900,3,"suspends sth. of","Goxos","Ebib","Ebib","2",9,TRUE,TRUE,TRUE,0,1,"robber2"
"robber","Zugew,Goxos,Ebib,Ahow,Zimob,Ottha","analogues","hebb",11,580872,"0.0-4.0-7.0","0rn21efqotza",NA,"Museum Ebib gets robbed.","Ebib","gets robbed",15140,2,"gets robbed","Ebib",NA,NA,"3",9,TRUE,NA,TRUE,0,1,"robber3"
"crusader","Henu,Mawi,Lenik,Afi,Hoap,Kawud","analogues","hebb",12,635679,"0.0-4.0-8.0","0rn21efqotza",NA,"Crusader group Henu buys weapon Mawi.","Henu","buys",17030,3,"buys","Henu","Mawi","Mawi","1",10,TRUE,TRUE,TRUE,0,1,"crusader1"
"crusader","Henu,Mawi,Lenik,Afi,Hoap,Kawud","analogues","hebb",12,635679,"0.0-4.0-8.0","0rn21efqotza",NA,"Weapon Mawi breaches the fortification of town Lenik.","Mawi","breaches sth. of",13033,3,"breaches sth. of","Mawi","Lenik","Lenik","2",10,TRUE,TRUE,TRUE,0,1,"crusader2"
"crusader","Henu,Mawi,Lenik,Afi,Hoap,Kawud","analogues","hebb",12,635679,"0.0-4.0-8.0","0rn21efqotza",NA,"Town Lenik is invaded.","Lenik","is invaded",14229,2,"is invaded","Lenik",NA,NA,"3",10,TRUE,NA,TRUE,0,1,"crusader3"
"neighbor","Newi,Thygef,Pobat,Awiz,Thyra,Orok","fillers","hebb",13,696996,"0.0-4.0-9.0","0rn21efqotza",NA,"Man Newi takes care of cat Thygef.","Newi","takes care of",27641,5,"takes care of","Newi","Thygef","Thygef","1",11,TRUE,TRUE,TRUE,0,1,"neighbor1"
"neighbor","Newi,Thygef,Pobat,Awiz,Thyra,Orok","fillers","hebb",13,696996,"0.0-4.0-9.0","0rn21efqotza",NA,"Cat Thygef walks over the flowers of neighbor Pobat","Thygef","walks over sth. of",9207,3,"walks over sth. of","Thygef","Pobat","Pobat","2",11,TRUE,TRUE,TRUE,0,1,"neighbor2"
"neighbor","Newi,Thygef,Pobat,Awiz,Thyra,Orok","fillers","hebb",13,696996,"0.0-4.0-9.0","0rn21efqotza",NA,"Neighbor Pobat gets angry.","Pobat","gets angry",13948,2,"gets angry","Pobat",NA,NA,"3",11,TRUE,NA,TRUE,0,1,"neighbor3"
"mining","Gelyp,Enmob,Zishu,Zidep,Lyde,Gena","fillers","hebb",14,816637,"0.0-4.0-10.0","0rn21efqotza",NA,"Mining company Gelyp has a lot of resource Enmob.","Gelyp","has a lot of",27949,3,"has a lot of","Gelyp","Enmob","Enmob","1",12,TRUE,TRUE,TRUE,0,1,"mining1"
"mining","Gelyp,Enmob,Zishu,Zidep,Lyde,Gena","fillers","hebb",14,816637,"0.0-4.0-10.0","0rn21efqotza",NA,"Resource Enmob is sparse in country Zishu.","Enmob","is sparse in",14350,3,"is sparse in","Enmob","Zishu","Zishu","2",12,TRUE,TRUE,TRUE,0,1,"mining2"
"mining","Gelyp,Enmob,Zishu,Zidep,Lyde,Gena","fillers","hebb",14,816637,"0.0-4.0-10.0","0rn21efqotza",NA,"Country Zishu starts negotiating.","Zishu","starts negotiating",66799,2,"starts negotiating","Zishu",NA,NA,"3",12,TRUE,NA,TRUE,0,1,"mining3"
"school","Ubug,Meuf,Eshov,Itbob,Hize,Matmag","burns","hebb",16,914008,"0.0-4.0-12.0","0rn21efqotza",NA,"School girl Ubug beats boy Meuf.","Ubug","beats",19502,3,"beats","Ubug","Meuf","Meuf","1",14,TRUE,TRUE,TRUE,0,1,"school1"
"school","Ubug,Meuf,Eshov,Itbob,Hize,Matmag","burns","hebb",16,914008,"0.0-4.0-12.0","0rn21efqotza",NA,"Boy Meuf reports to teacher Eshov.","Meuf","reports to",19089,3,"reports to","Meuf","Eshov","Eshov","2",14,TRUE,TRUE,TRUE,0,1,"school2"
"school","Ubug,Meuf,Eshov,Itbob,Hize,Matmag","burns","hebb",16,914008,"0.0-4.0-12.0","0rn21efqotza",NA,"Teacher Eshov calls parents.","Eshov","calls parents",17291,2,"calls parents","Eshov",NA,NA,"3",14,TRUE,NA,TRUE,0,1,"school3"
"lawyer","Vipal,Ohan,Ofpoz,Pide,Pishi,Evib","analogues","hebb",17,976190,"0.0-4.0-13.0","0rn21efqotza",NA,"Lawyer Vipal finds loophole Ohan.","Vipal","finds",20793,3,"finds","Vipal","Ohan","Ohan","1",15,TRUE,TRUE,TRUE,0,1,"lawyer1"
"lawyer","Vipal,Ohan,Ofpoz,Pide,Pishi,Evib","analogues","hebb",17,976190,"0.0-4.0-13.0","0rn21efqotza",NA,"Loophole Ohan bypasses contract of union Ofpoz.","Ohan","bypasses sth. of",12909,3,"bypasses sth. of","Ohan","Ofpoz","Ofpoz","2",15,TRUE,TRUE,TRUE,0,1,"lawyer2"
"lawyer","Vipal,Ohan,Ofpoz,Pide,Pishi,Evib","analogues","hebb",17,976190,"0.0-4.0-13.0","0rn21efqotza",NA,"Union Ofpoz loses a lawsuit.","Ofpoz","loses sth.",17971,2,"loses sth.","Ofpoz",NA,NA,"3",15,TRUE,NA,TRUE,0,1,"lawyer3"
"fox","Igoth,Upum,Ifeh,Wecin,Adjo,Uwit","analogues","hebb",18,1159165,"0.0-4.0-14.0","0rn21efqotza",NA,"Fox Igoth digs tunnel Upum.","Igoth","digs",29890,3,"digs","Igoth","Upum","Upum","1",16,TRUE,TRUE,TRUE,0,1,"fox1"
"fox","Igoth,Upum,Ifeh,Wecin,Adjo,Uwit","analogues","hebb",18,1159165,"0.0-4.0-14.0","0rn21efqotza",NA,"Tunnel Upum leads to coop of chicken Ifeh.","Upum","leads to sth. of",31079,5,"leads to sth. of","Upum","Ifeh","Ifeh","2",16,TRUE,TRUE,TRUE,0,1,"fox2"
"fox","Igoth,Upum,Ifeh,Wecin,Adjo,Uwit","analogues","hebb",18,1159165,"0.0-4.0-14.0","0rn21efqotza",NA,"Chicken Ifeh is devoured.","Ifeh","is devoured",111487,2,"is devoured","Ifeh",NA,NA,"3",16,TRUE,NA,TRUE,0,1,"fox3"
"employee","Roze,Avyth,Vivaf,Ezol,Fozeh,Uyim","fillers","hebb",19,1253480,"0.0-4.0-15.0","0rn21efqotza",NA,"Employee Roze is assigned to project Avyth.","Roze","is assigned to",28752,3,"is assigned to","Roze","Avyth","Avyth","1",17,TRUE,TRUE,TRUE,0,1,"employee1"
"employee","Roze,Avyth,Vivaf,Ezol,Fozeh,Uyim","fillers","hebb",19,1253480,"0.0-4.0-15.0","0rn21efqotza",NA,"Project Avyth supports agenda of manager Vivaf.","Avyth","supports sth. of",39849,4,"supports sth. of","Avyth","Vivaf","Vivaf","2",17,TRUE,TRUE,TRUE,0,1,"employee2"
"employee","Roze,Avyth,Vivaf,Ezol,Fozeh,Uyim","fillers","hebb",19,1253480,"0.0-4.0-15.0","0rn21efqotza",NA,"Manager Vivaf gets a promotion.","Vivaf","gets a promotion",15181,2,"gets a promotion","Vivaf",NA,NA,"3",17,TRUE,NA,TRUE,0,1,"employee3"
"farm","Wutoc,Uvman,Aid,Gabit,Soav,Napib","fillers","hebb",20,1340319,"0.0-4.0-16.0","0rn21efqotza",NA,"Farmer Wutoc purchases machine Uvman.","Wutoc","purchases",25528,3,"purchases","Wutoc","Uvman","Uvman","1",18,TRUE,TRUE,TRUE,0,1,"farm1"
"farm","Wutoc,Uvman,Aid,Gabit,Soav,Napib","fillers","hebb",20,1340319,"0.0-4.0-16.0","0rn21efqotza",NA,"Machine Uvman can collect fruit of plant Aid.","Uvman","can collect",39235,3,"can collect","Uvman","Aid","Aid","2",18,TRUE,TRUE,TRUE,0,1,"farm2"
"farm","Wutoc,Uvman,Aid,Gabit,Soav,Napib","fillers","hebb",20,1340319,"0.0-4.0-16.0","0rn21efqotza",NA,"Plant Aid are harvested automatically.","Aid","are harvested automatically",11540,2,"are harvested automatically","Aid",NA,NA,"3",18,TRUE,NA,TRUE,0,1,"farm3"
"meteo","Napib,Zugew,Ribi,Eshbu,Kawud,Henu","burns","hebb",4,139381,"0.0-4.0-0.0","1geu3e4p83xs",NA,"Cloud Napib collects humidity over ocean Zugew.","Ribi","is fertile",20405,4,"collects humidity over","Napib","","","1",2,FALSE,TRUE,FALSE,0,0.333333333333333,"meteo1"
"meteo","Napib,Zugew,Ribi,Eshbu,Kawud,Henu","burns","hebb",4,139381,"0.0-4.0-0.0","1geu3e4p83xs",NA,"Ocean Zugew lies next to the beaches of area Ribi.","Ribi","is fertile",25552,5,"lies next to","Zugew","Napib","Ribi","2",2,FALSE,FALSE,FALSE,0,0,"meteo2"
"meteo","Napib,Zugew,Ribi,Eshbu,Kawud,Henu","burns","hebb",4,139381,"0.0-4.0-0.0","1geu3e4p83xs",NA,"Area Ribi is fertile.","Ribi","is fertile",17646,2,"is fertile","Ribi",NA,NA,"3",2,TRUE,NA,TRUE,0,1,"meteo3"
"fish","Lyde,Ohuy,Eefar,Romap,Saly,Itbob","burns","hebb",5,200586,"0.0-4.0-1.0","1geu3e4p83xs",NA,"Fisher Lyde cultivates sea grass Ohuy.","Ohuy","is captured",26470,5,"cultivates","Lyde","Saly","Ohuy","1",3,FALSE,FALSE,FALSE,0,0,"fish1"
"fish","Lyde,Ohuy,Eefar,Romap,Saly,Itbob","burns","hebb",5,200586,"0.0-4.0-1.0","1geu3e4p83xs",NA,"Sea grass Ohuy is eaten by fish Eefar.","Ohuy","grows",14923,3,"is eaten by","Ohuy","Eefar","Eefar","2",3,TRUE,TRUE,FALSE,0,0.666666666666667,"fish2"
"fish","Lyde,Ohuy,Eefar,Romap,Saly,Itbob","burns","hebb",5,200586,"0.0-4.0-1.0","1geu3e4p83xs",NA,"Fish Eefar is captured.","Eefar","is eaten by",9250,2,"is captured","Eefar",NA,NA,"3",3,TRUE,NA,FALSE,0,0.5,"fish3"
"insect","Vivaf,Epnux,Rove,Adjo,Zishu,Fozeh","burns","hebb",6,261683,"0.0-4.0-2.0","1geu3e4p83xs",NA,"Perfume Vivaf attracts insect Epnux.","Epnux","smells",20391,4,"attracts","Vivaf","Rove","Epnux","1",4,FALSE,FALSE,FALSE,0,0,"insect1"
"insect","Vivaf,Epnux,Rove,Adjo,Zishu,Fozeh","burns","hebb",6,261683,"0.0-4.0-2.0","1geu3e4p83xs",NA,"Insect Epnux attacks woman Rove.","Rove","has an allergic reaction",16204,3,"attacks","Epnux","Vivaf","Rove","2",4,FALSE,FALSE,FALSE,0,0,"insect2"
"insect","Vivaf,Epnux,Rove,Adjo,Zishu,Fozeh","burns","hebb",6,261683,"0.0-4.0-2.0","1geu3e4p83xs",NA,"Woman Rove has an allergic reaction.","Fozeh","has an allergic reaction",13923,2,"has an allergic reaction","Rove",NA,NA,"3",4,FALSE,NA,TRUE,0,0.5,"insect3"
"storm","Potho,Zimob,Vuloz,Uwit,Ohan,Turow","fillers","hebb",7,317342,"0.0-4.0-3.0","1geu3e4p83xs",NA,"Storm Potho hits tree Zimob.","Potho","hits",19220,3,"hits","Potho","Vuloz","Zimob","1",5,TRUE,FALSE,TRUE,0,0.666666666666667,"storm1"
"storm","Potho,Zimob,Vuloz,Uwit,Ohan,Turow","fillers","hebb",7,317342,"0.0-4.0-3.0","1geu3e4p83xs",NA,"Tree Zimob falls on trail of route Vuloz.","Potho","falls on",16939,3,"falls on","Zimob","Zimob","Vuloz","2",5,FALSE,FALSE,TRUE,0,0.333333333333333,"storm2"
"storm","Potho,Zimob,Vuloz,Uwit,Ohan,Turow","fillers","hebb",7,317342,"0.0-4.0-3.0","1geu3e4p83xs",NA,"Route Vuloz is blocked.","Zimob","is blocked",8953,2,"is blocked","Vuloz",NA,NA,"3",5,FALSE,NA,TRUE,0,0.5,"storm3"
"farm","Uvman,Matmag,Vilux,Ewey,Yuxeh,Ezol","fillers","hebb",8,378882,"0.0-4.0-4.0","1geu3e4p83xs",NA,"Farmer Uvman purchases machine Matmag.","Ewey","can collect",20969,3,"purchases","Uvman","Matmag","Matmag","1",6,FALSE,TRUE,FALSE,0,0.333333333333333,"farm1"
"farm","Uvman,Matmag,Vilux,Ewey,Yuxeh,Ezol","fillers","hebb",8,378882,"0.0-4.0-4.0","1geu3e4p83xs",NA,"Machine Matmag can collect fruit of plant Vilux.","Matmag","are picked manually",11735,3,"can collect","Matmag","Ezol","Vilux","2",6,TRUE,FALSE,FALSE,0,0.333333333333333,"farm2"
"farm","Uvman,Matmag,Vilux,Ewey,Yuxeh,Ezol","fillers","hebb",8,378882,"0.0-4.0-4.0","1geu3e4p83xs",NA,"Plant Vilux are harvested automatically.","Ewey","are harvested automatically",18268,3,"are harvested automatically","Vilux",NA,NA,"3",6,FALSE,NA,TRUE,0,0.5,"farm3"
"bacteria","Puvi,Paza,Ofpoz,Thusoth,Owih,Owmi","analogues","hebb",9,426176,"0.0-4.0-5.0","1geu3e4p83xs",NA,"Bacteria Puvi emits enzyme Paza.","Puvi","dissolves sth. of",12870,3,"emits","Puvi","Ofpoz","Paza","1",7,TRUE,FALSE,FALSE,0,0.333333333333333,"bacteria1"
"bacteria","Puvi,Paza,Ofpoz,Thusoth,Owih,Owmi","analogues","hebb",9,426176,"0.0-4.0-5.0","1geu3e4p83xs",NA,"Enzyme Paza dissolves the membrane of organ Ofpoz.","Paza","is eliminated",12625,3,"dissolves sth. of","Paza","Ofpoz","Ofpoz","2",7,TRUE,TRUE,FALSE,0,0.666666666666667,"bacteria2"
"bacteria","Puvi,Paza,Ofpoz,Thusoth,Owih,Owmi","analogues","hebb",9,426176,"0.0-4.0-5.0","1geu3e4p83xs",NA,"Organ Ofpoz fails.","Paza","injects",11219,3,"fails","Ofpoz",NA,NA,"3",7,FALSE,NA,FALSE,0,0,"bacteria3"
"crusader","Wutoc,Enmob,Diaf,Ubug,Roze,Lenik","analogues","hebb",10,480458,"0.0-4.0-6.0","1geu3e4p83xs",NA,"Crusader group Wutoc buys weapon Enmob.","Wutoc","buys",16391,5,"buys","Wutoc","Enmob","Enmob","1",8,TRUE,TRUE,TRUE,0,1,"crusader1"
"crusader","Wutoc,Enmob,Diaf,Ubug,Roze,Lenik","analogues","hebb",10,480458,"0.0-4.0-6.0","1geu3e4p83xs",NA,"Weapon Enmob breaches the fortification of town Diaf.","Wutoc","acquires",11938,3,"breaches sth. of","Enmob","Enmob","Diaf","2",8,FALSE,FALSE,FALSE,0,0,"crusader2"
"crusader","Wutoc,Enmob,Diaf,Ubug,Roze,Lenik","analogues","hebb",10,480458,"0.0-4.0-6.0","1geu3e4p83xs",NA,"Town Diaf is invaded.","Enmob","is invaded",15375,2,"is invaded","Diaf",NA,NA,"3",8,FALSE,NA,TRUE,0,0.5,"crusader3"
"mining","Ottha,Thuha,Hize,Misug,Hadith,Ifeh","fillers","hebb",11,553400,"0.0-4.0-7.0","1geu3e4p83xs",NA,"Mining company Ottha has a lot of resource Thuha.","Ottha","starts negotiating",15500,3,"has a lot of","Ottha","Hize","Thuha","1",9,TRUE,FALSE,FALSE,0,0.333333333333333,"mining1"
"mining","Ottha,Thuha,Hize,Misug,Hadith,Ifeh","fillers","hebb",11,553400,"0.0-4.0-7.0","1geu3e4p83xs",NA,"Resource Thuha is sparse in country Hize.","Hize","fills in for",24971,5,"is sparse in","Thuha","Thuha","Hize","2",9,FALSE,FALSE,FALSE,0,0,"mining2"
"mining","Ottha,Thuha,Hize,Misug,Hadith,Ifeh","fillers","hebb",11,553400,"0.0-4.0-7.0","1geu3e4p83xs",NA,"Country Hize starts negotiating.","Hize","starts negotiating",21907,4,"starts negotiating","Hize",NA,NA,"3",9,TRUE,NA,TRUE,0,1,"mining3"
"employee","Hosen,Ena,Mewep,Inag,Rothuk,Aid","fillers","hebb",12,607214,"0.0-4.0-8.0","1geu3e4p83xs",NA,"Employee Hosen is assigned to project Ena.","Ena","is assigned to",20610,5,"is assigned to","Hosen","Hosen","Ena","1",10,FALSE,FALSE,TRUE,0,0.333333333333333,"employee1"
"employee","Hosen,Ena,Mewep,Inag,Rothuk,Aid","fillers","hebb",12,607214,"0.0-4.0-8.0","1geu3e4p83xs",NA,"Project Ena supports agenda of manager Mewep.","Hosen","is arranged to",16657,7,"supports sth. of","Ena","Inag","Mewep","2",10,FALSE,FALSE,FALSE,0,0,"employee2"
"employee","Hosen,Ena,Mewep,Inag,Rothuk,Aid","fillers","hebb",12,607214,"0.0-4.0-8.0","1geu3e4p83xs",NA,"Manager Mewep gets a promotion.","Inag","gets a bonus",5984,2,"gets a promotion","Mewep",NA,NA,"3",10,FALSE,NA,FALSE,0,0,"employee3"
"robber","Avyth,Hoyl,Vipal,Lothe,Mabi,Zidep","analogues","hebb",13,648812,"0.0-4.0-9.0","1geu3e4p83xs",NA,"Criminal Avyth learns about security issue Hoyl.","Hoyl","gets robbed",11747,4,"learns about","Avyth","Lothe","Hoyl","1",11,FALSE,FALSE,FALSE,0,0,"robber1"
"robber","Avyth,Hoyl,Vipal,Lothe,Mabi,Zidep","analogues","hebb",13,648812,"0.0-4.0-9.0","1geu3e4p83xs",NA,"Security issue Hoyl suspends alarm system of museum Vipal.","Lothe","starts looking",11657,3,"suspends sth. of","Hoyl","Mabi","Vipal","2",11,FALSE,FALSE,FALSE,0,0,"robber2"
"robber","Avyth,Hoyl,Vipal,Lothe,Mabi,Zidep","analogues","hebb",13,648812,"0.0-4.0-9.0","1geu3e4p83xs",NA,"Museum Vipal gets robbed.","Hoyl","is hijacked",7658,2,"gets robbed","Vipal",NA,NA,"3",11,FALSE,NA,FALSE,0,0,"robber3"
"hacker","Gena,Uyim,Eshov,Kewos,Soav,Ahow","analogues","hebb",14,702735,"0.0-4.0-10.0","1geu3e4p83xs",NA,"Hacker Gena writes computer code Uyim.","Gena","writes",18922,4,"writes","Gena","Uyim","Uyim","1",12,TRUE,TRUE,TRUE,0,1,"hacker1"
"hacker","Gena,Uyim,Eshov,Kewos,Soav,Ahow","analogues","hebb",14,702735,"0.0-4.0-10.0","1geu3e4p83xs",NA,"Code Uyim cracks the firewall of company Eshov.","Eshov","cracks sth. of",15189,3,"cracks sth. of","Uyim","Soav","Eshov","2",12,FALSE,FALSE,TRUE,0,0.333333333333333,"hacker2"
"hacker","Gena,Uyim,Eshov,Kewos,Soav,Ahow","analogues","hebb",14,702735,"0.0-4.0-10.0","1geu3e4p83xs",NA,"Company Eshov suffers a data loss.","Soav","suffers sth.",9234,2,"suffers sth.","Eshov",NA,NA,"3",12,FALSE,NA,TRUE,0,0.5,"hacker3"
"school","Ofes,Thygef,Idog,Olef,Ebib,Assit","burns","hebb",16,775958,"0.0-4.0-12.0","1geu3e4p83xs",NA,"School girl Ofes beats boy Thygef.","Olef","beats",20635,5,"beats","Ofes","Ofes","Thygef","1",14,FALSE,FALSE,TRUE,0,0.333333333333333,"school1"
"school","Ofes,Thygef,Idog,Olef,Ebib,Assit","burns","hebb",16,775958,"0.0-4.0-12.0","1geu3e4p83xs",NA,"Boy Thygef reports to teacher Idog.","Ofes","goes to",16844,3,"reports to","Thygef","Idog","Idog","2",14,FALSE,TRUE,FALSE,0,0.333333333333333,"school2"
"school","Ofes,Thygef,Idog,Olef,Ebib,Assit","burns","hebb",16,775958,"0.0-4.0-12.0","1geu3e4p83xs",NA,"Teacher Idog calls parents.","Idog","calls parents",7265,2,"calls parents","Idog",NA,NA,"3",14,TRUE,NA,TRUE,0,1,"school3"
"pump","Olag,Felac,Upno,Pishi,Goxos,Dohod","fillers","hebb",17,819146,"0.0-4.0-13.0","1geu3e4p83xs",NA,"Plumber Olag installs pump Felac.","Upno","sucks sth. from",16750,5,"installs","Olag","Olag","Felac","1",15,FALSE,FALSE,FALSE,0,0,"pump1"
"pump","Olag,Felac,Upno,Pishi,Goxos,Dohod","fillers","hebb",17,819146,"0.0-4.0-13.0","1geu3e4p83xs",NA,"Pump Felac sucks water from ground Upno.","Olag","builds",8767,3,"sucks sth. from","Felac","Upno","Upno","2",15,FALSE,TRUE,FALSE,0,0.333333333333333,"pump2"
"pump","Olag,Felac,Upno,Pishi,Goxos,Dohod","fillers","hebb",17,819146,"0.0-4.0-13.0","1geu3e4p83xs",NA,"Ground Upno dries up.","Upno","dries up",7093,2,"dries up","Upno",NA,NA,"3",15,TRUE,NA,TRUE,0,1,"pump3"
"neighbor","Meuf,Hoap,Gelyp,Igoth,Uhuy,Niem","fillers","hebb",18,892182,"0.0-4.0-14.0","1geu3e4p83xs",NA,"Man Meuf takes care of cat Hoap.","Hoap","is feeding",28610,6,"takes care of","Meuf","Igoth","Hoap","1",16,FALSE,FALSE,FALSE,0,0,"neighbor1"
"neighbor","Meuf,Hoap,Gelyp,Igoth,Uhuy,Niem","fillers","hebb",18,892182,"0.0-4.0-14.0","1geu3e4p83xs",NA,"Cat Hoap walks over the flowers of neighbor Gelyp","Igoth","strays over to",20829,3,"walks over sth. of","Hoap","Gelyp","Gelyp","2",16,FALSE,TRUE,FALSE,0,0.333333333333333,"neighbor2"
"neighbor","Meuf,Hoap,Gelyp,Igoth,Uhuy,Niem","fillers","hebb",18,892182,"0.0-4.0-14.0","1geu3e4p83xs",NA,"Neighbor Gelyp gets angry.","Gelyp","goes over sth. of",13016,2,"gets angry","Gelyp",NA,NA,"3",16,TRUE,NA,FALSE,0,0.5,"neighbor3"
"lawyer","Mawi,Dugoz,Wecin,Upum,Wehif,Newi","analogues","hebb",19,957591,"0.0-4.0-15.0","1geu3e4p83xs",NA,"Lawyer Mawi finds loophole Dugoz.","Mawi","meets",13141,3,"finds","Mawi","Dugoz","Dugoz","1",17,TRUE,TRUE,FALSE,0,0.666666666666667,"lawyer1"
"lawyer","Mawi,Dugoz,Wecin,Upum,Wehif,Newi","analogues","hebb",19,957591,"0.0-4.0-15.0","1geu3e4p83xs",NA,"Loophole Dugoz bypasses contract of union Wecin.","Dugoz","bypasses sth. of",28611,3,"bypasses sth. of","Dugoz","Wehif","Wecin","2",17,TRUE,FALSE,TRUE,0,0.666666666666667,"lawyer2"
"lawyer","Mawi,Dugoz,Wecin,Upum,Wehif,Newi","analogues","hebb",19,957591,"0.0-4.0-15.0","1geu3e4p83xs",NA,"Union Wecin loses a lawsuit.","Wehif","finds",13078,2,"loses sth.","Wecin",NA,NA,"3",17,FALSE,NA,FALSE,0,0,"lawyer3"
"fox","Titho,Ihab,Upel,Evib,Ilres,Thyra","analogues","hebb",20,1015452,"0.0-4.0-16.0","1geu3e4p83xs",NA,"Fox Titho digs tunnel Ihab.","Ilres","wants",31579,3,"digs","Titho","Upel","Ihab","1",18,FALSE,FALSE,FALSE,0,0,"fox1"
"fox","Titho,Ihab,Upel,Evib,Ilres,Thyra","analogues","hebb",20,1015452,"0.0-4.0-16.0","1geu3e4p83xs",NA,"Tunnel Ihab leads to coop of chicken Upel.","Upel","burrow",9094,3,"leads to sth. of","Ihab","Ihab","Upel","2",18,FALSE,FALSE,FALSE,0,0,"fox2"
"fox","Titho,Ihab,Upel,Evib,Ilres,Thyra","analogues","hebb",20,1015452,"0.0-4.0-16.0","1geu3e4p83xs",NA,"Chicken Upel is devoured.","Ilres","is missing",6609,2,"is devoured","Upel",NA,NA,"3",18,FALSE,NA,FALSE,0,0,"fox3"
"school","Thusoth,Roze,Thyra,Kewos,Mewep,Uhuy","burns","hebb",4,252579,"0.0-4.0-0.0","1jxmswrvo6gh",NA,"School girl Thusoth beats boy Roze.","Thyra","punches",39484,7,"beats","Thusoth","Roze","Roze","1",2,FALSE,TRUE,FALSE,0,0.333333333333333,"school1"
"school","Thusoth,Roze,Thyra,Kewos,Mewep,Uhuy","burns","hebb",4,252579,"0.0-4.0-0.0","1jxmswrvo6gh",NA,"Boy Roze reports to teacher Thyra.","Roze","reports to",29209,3,"reports to","Roze","Thyra","Thyra","2",2,TRUE,TRUE,TRUE,0,1,"school2"
"school","Thusoth,Roze,Thyra,Kewos,Mewep,Uhuy","burns","hebb",4,252579,"0.0-4.0-0.0","1jxmswrvo6gh",NA,"Teacher Thyra calls parents.","Thyra","calls parents",9726,2,"calls parents","Thyra",NA,NA,"3",2,TRUE,NA,TRUE,0,1,"school3"
"fish","Pobat,Eyem,Ezol,Avyth,Henu,Thygef","burns","hebb",5,338927,"0.0-4.0-1.0","1jxmswrvo6gh",NA,"Fisher Pobat cultivates sea grass Eyem.","Eyem","cultivates",27915,4,"cultivates","Pobat","Ezol","Eyem","1",3,FALSE,FALSE,TRUE,0,0.333333333333333,"fish1"
"fish","Pobat,Eyem,Ezol,Avyth,Henu,Thygef","burns","hebb",5,338927,"0.0-4.0-1.0","1jxmswrvo6gh",NA,"Sea grass Eyem is eaten by fish Ezol.","Ezol","is taken",40643,3,"is eaten by","Eyem","Pobat","Ezol","2",3,FALSE,FALSE,FALSE,0,0,"fish2"
"fish","Pobat,Eyem,Ezol,Avyth,Henu,Thygef","burns","hebb",5,338927,"0.0-4.0-1.0","1jxmswrvo6gh",NA,"Fish Ezol is captured.","Pobat","is captured",7252,2,"is captured","Ezol",NA,NA,"3",3,FALSE,NA,TRUE,0,0.5,"fish3"
"meteo","Ihab,Ohan,Ewey,Matmag,Uyim,Saly","burns","hebb",6,425528,"0.0-4.0-2.0","1jxmswrvo6gh",NA,"Cloud Ihab collects humidity over ocean Ohan.","Ohan","collects humidity over",25831,4,"collects humidity over","Ihab","Ewey","Ohan","1",4,FALSE,FALSE,TRUE,0,0.333333333333333,"meteo1"
"meteo","Ihab,Ohan,Ewey,Matmag,Uyim,Saly","burns","hebb",6,425528,"0.0-4.0-2.0","1jxmswrvo6gh",NA,"Ocean Ohan lies next to the beaches of area Ewey.","Ewey","is contained in",39762,3,"lies next to","Ohan","Ohan","Ewey","2",4,FALSE,FALSE,FALSE,0,0,"meteo2"
"meteo","Ihab,Ohan,Ewey,Matmag,Uyim,Saly","burns","hebb",6,425528,"0.0-4.0-2.0","1jxmswrvo6gh",NA,"Area Ewey is fertile.","Ewey","is fertile",10469,3,"is fertile","Ewey",NA,NA,"3",4,TRUE,NA,TRUE,0,1,"meteo3"
"fox","Paza,Adjo,Diaf,Gelyp,Upum,Ilres","analogues","hebb",7,512101,"0.0-4.0-3.0","1jxmswrvo6gh",NA,"Fox Paza digs tunnel Adjo.","Paza","wants",47403,3,"digs","Paza","Adjo","Adjo","1",5,TRUE,TRUE,FALSE,0,0.666666666666667,"fox1"
"fox","Paza,Adjo,Diaf,Gelyp,Upum,Ilres","analogues","hebb",7,512101,"0.0-4.0-3.0","1jxmswrvo6gh",NA,"Tunnel Adjo leads to coop of chicken Diaf.","Adjo","is missing",20922,3,"leads to sth. of","Adjo","Upum","Diaf","2",5,TRUE,FALSE,FALSE,0,0.333333333333333,"fox2"
"fox","Paza,Adjo,Diaf,Gelyp,Upum,Ilres","analogues","hebb",7,512101,"0.0-4.0-3.0","1jxmswrvo6gh",NA,"Chicken Diaf is devoured.","Upum","is devoured",7698,2,"is devoured","Diaf",NA,NA,"3",5,FALSE,NA,TRUE,0,0.5,"fox3"
"crusader","Potho,Titho,Zugew,Yuxeh,Fozeh,Ofpoz","analogues","hebb",8,578253,"0.0-4.0-4.0","1jxmswrvo6gh",NA,"Crusader group Potho buys weapon Titho.","Potho","is intruded",21772,3,"buys","Potho","Titho","Titho","1",6,TRUE,TRUE,FALSE,0,0.666666666666667,"crusader1"
"crusader","Potho,Titho,Zugew,Yuxeh,Fozeh,Ofpoz","analogues","hebb",8,578253,"0.0-4.0-4.0","1jxmswrvo6gh",NA,"Weapon Titho breaches the fortification of town Zugew.","Titho","buys",16615,3,"breaches sth. of","Titho","Fozeh","Zugew","2",6,TRUE,FALSE,FALSE,0,0.333333333333333,"crusader2"
"crusader","Potho,Titho,Zugew,Yuxeh,Fozeh,Ofpoz","analogues","hebb",8,578253,"0.0-4.0-4.0","1jxmswrvo6gh",NA,"Town Zugew is invaded.","Fozeh","is invaded",17207,5,"is invaded","Zugew",NA,NA,"3",6,FALSE,NA,TRUE,0,0.5,"crusader3"
"farm","Olag,Upno,Zidep,Ubug,Thisun,Orok","fillers","hebb",9,646584,"0.0-4.0-5.0","1jxmswrvo6gh",NA,"Farmer Olag purchases machine Upno.","Olag","buys",17818,3,"purchases","Olag","Zidep","Upno","1",7,TRUE,FALSE,FALSE,0,0.333333333333333,"farm1"
"farm","Olag,Upno,Zidep,Ubug,Thisun,Orok","fillers","hebb",9,646584,"0.0-4.0-5.0","1jxmswrvo6gh",NA,"Machine Upno can collect fruit of plant Zidep.","Zidep","purchases",30394,4,"can collect","Upno","Thisun","Zidep","2",7,FALSE,FALSE,FALSE,0,0,"farm2"
"farm","Olag,Upno,Zidep,Ubug,Thisun,Orok","fillers","hebb",9,646584,"0.0-4.0-5.0","1jxmswrvo6gh",NA,"Plant Zidep are harvested automatically.","Zidep","are reaped mechanically",9571,3,"are harvested automatically","Zidep",NA,NA,"3",7,TRUE,NA,FALSE,0,0.5,"farm3"
"employee","Ribi,Pishi,Owih,Igoth,Ohuy,Ofes","fillers","hebb",10,743345,"0.0-4.0-6.0","1jxmswrvo6gh",NA,"Employee Ribi is assigned to project Pishi.","Ribi","is assigned to",26879,4,"is assigned to","Ribi","Pishi","Pishi","1",8,TRUE,TRUE,TRUE,0,1,"employee1"
"employee","Ribi,Pishi,Owih,Igoth,Ohuy,Ofes","fillers","hebb",10,743345,"0.0-4.0-6.0","1jxmswrvo6gh",NA,"Project Pishi supports agenda of manager Owih.","Ribi","supports sth. of",48533,5,"supports sth. of","Pishi","Pishi","Owih","2",8,FALSE,FALSE,TRUE,0,0.333333333333333,"employee2"
"employee","Ribi,Pishi,Owih,Igoth,Ohuy,Ofes","fillers","hebb",10,743345,"0.0-4.0-6.0","1jxmswrvo6gh",NA,"Manager Owih gets a promotion.","Pishi","gets a promotion",10793,2,"gets a promotion","Owih",NA,NA,"3",8,FALSE,NA,TRUE,0,0.5,"employee3"
"hacker","Pide,Newi,Rothuk,Dugoz,Uwit,Mabi","analogues","hebb",11,800324,"0.0-4.0-7.0","1jxmswrvo6gh",NA,"Hacker Pide writes computer code Newi.","Pide","writes",20413,3,"writes","Pide","Mabi","Newi","1",9,TRUE,FALSE,TRUE,0,0.666666666666667,"hacker1"
"hacker","Pide,Newi,Rothuk,Dugoz,Uwit,Mabi","analogues","hebb",11,800324,"0.0-4.0-7.0","1jxmswrvo6gh",NA,"Code Newi cracks the firewall of company Rothuk.","Mabi","penetrates sth. of",16744,3,"cracks sth. of","Newi","Rothuk","Rothuk","2",9,FALSE,TRUE,FALSE,0,0.333333333333333,"hacker2"
"hacker","Pide,Newi,Rothuk,Dugoz,Uwit,Mabi","analogues","hebb",11,800324,"0.0-4.0-7.0","1jxmswrvo6gh",NA,"Company Rothuk suffers a data loss.","Rothuk","suffers sth.",9274,2,"suffers sth.","Rothuk",NA,NA,"3",9,TRUE,NA,TRUE,0,1,"hacker3"
"bacteria","Niem,Vivaf,Epnux,Eshbu,Eefar,Napib","analogues","hebb",12,866008,"0.0-4.0-8.0","1jxmswrvo6gh",NA,"Bacteria Niem emits enzyme Vivaf.","Vivaf","emits",19109,3,"emits","Niem","Napib","Vivaf","1",10,FALSE,FALSE,TRUE,0,0.333333333333333,"bacteria1"
"bacteria","Niem,Vivaf,Epnux,Eshbu,Eefar,Napib","analogues","hebb",12,866008,"0.0-4.0-8.0","1jxmswrvo6gh",NA,"Enzyme Vivaf dissolves the membrane of organ Epnux.","Napib","expels",28491,3,"dissolves sth. of","Vivaf","Eefar","Epnux","2",10,FALSE,FALSE,FALSE,0,0,"bacteria2"
"bacteria","Niem,Vivaf,Epnux,Eshbu,Eefar,Napib","analogues","hebb",12,866008,"0.0-4.0-8.0","1jxmswrvo6gh",NA,"Organ Epnux fails.","Eefar","dies",7545,2,"fails","Epnux",NA,NA,"3",10,FALSE,NA,FALSE,0,0,"bacteria3"
"neighbor","Thuha,Turow,Owmi,Inag,Awiz,Afik","fillers","hebb",13,940269,"0.0-4.0-9.0","1jxmswrvo6gh",NA,"Man Thuha takes care of cat Turow.","Thuha","takes care of",39802,4,"takes care of","Thuha","Owmi","Turow","1",11,TRUE,FALSE,TRUE,0,0.666666666666667,"neighbor1"
"neighbor","Thuha,Turow,Owmi,Inag,Awiz,Afik","fillers","hebb",13,940269,"0.0-4.0-9.0","1jxmswrvo6gh",NA,"Cat Turow walks over the flowers of neighbor Owmi","Owmi","walks over sth. of",14811,3,"walks over sth. of","Turow","Thuha","Owmi","2",11,FALSE,FALSE,TRUE,0,0.333333333333333,"neighbor2"
"neighbor","Thuha,Turow,Owmi,Inag,Awiz,Afik","fillers","hebb",13,940269,"0.0-4.0-9.0","1jxmswrvo6gh",NA,"Neighbor Owmi gets angry.","Owmi","gets angry",9112,2,"gets angry","Owmi",NA,NA,"3",11,TRUE,NA,TRUE,0,1,"neighbor3"
"storm","Huluw,Wecin,Itbob,Evib,Kesal,Kawud","fillers","hebb",14,1008363,"0.0-4.0-10.0","1jxmswrvo6gh",NA,"Storm Huluw hits tree Wecin.","Evib","hits",18156,3,"hits","Huluw","Itbob","Wecin","1",12,FALSE,FALSE,TRUE,0,0.333333333333333,"storm1"
"storm","Huluw,Wecin,Itbob,Evib,Kesal,Kawud","fillers","hebb",14,1008363,"0.0-4.0-10.0","1jxmswrvo6gh",NA,"Tree Wecin falls on trail of route Itbob.","Itbob","hits",28503,3,"falls on","Wecin","Kesal","Itbob","2",12,FALSE,FALSE,FALSE,0,0,"storm2"
"storm","Huluw,Wecin,Itbob,Evib,Kesal,Kawud","fillers","hebb",14,1008363,"0.0-4.0-10.0","1jxmswrvo6gh",NA,"Route Itbob is blocked.","Itbob","is ruined",10901,2,"is blocked","Itbob",NA,NA,"3",12,TRUE,NA,FALSE,0,0.5,"storm3"
"insect","Hoap,Lyde,Enmob,Uvman,Rove,Idog","burns","hebb",16,1086445,"0.0-4.0-12.0","1jxmswrvo6gh",NA,"Perfume Hoap attracts insect Lyde.","Uvman","attracts",26264,3,"attracts","Hoap","Enmob","Lyde","1",14,FALSE,FALSE,TRUE,0,0.333333333333333,"insect1"
"insect","Hoap,Lyde,Enmob,Uvman,Rove,Idog","burns","hebb",16,1086445,"0.0-4.0-12.0","1jxmswrvo6gh",NA,"Insect Lyde attacks woman Enmob.","Enmob","smells",18048,3,"attacks","Lyde","Lyde","Enmob","2",14,FALSE,FALSE,FALSE,0,0,"insect2"
"insect","Hoap,Lyde,Enmob,Uvman,Rove,Idog","burns","hebb",16,1086445,"0.0-4.0-12.0","1jxmswrvo6gh",NA,"Woman Enmob has an allergic reaction.","Lyde","has an allergic reaction",7880,2,"has an allergic reaction","Enmob",NA,NA,"3",14,FALSE,NA,TRUE,0,0.5,"insect3"
"robber","Ahow,Wutoc,Afi,Reok,Wehif,Felac","analogues","hebb",17,1154653,"0.0-4.0-13.0","1jxmswrvo6gh",NA,"Criminal Ahow learns about security issue Wutoc.","Wutoc","learns about",23116,3,"learns about","Ahow","Ahow","Wutoc","1",15,FALSE,FALSE,TRUE,0,0.333333333333333,"robber1"
"robber","Ahow,Wutoc,Afi,Reok,Wehif,Felac","analogues","hebb",17,1154653,"0.0-4.0-13.0","1jxmswrvo6gh",NA,"Security issue Wutoc suspends alarm system of museum Afi.","Wutoc","is hijacked",22856,3,"suspends sth. of","Wutoc","Reok","Afi","2",15,TRUE,FALSE,FALSE,0,0.333333333333333,"robber2"
"robber","Ahow,Wutoc,Afi,Reok,Wehif,Felac","analogues","hebb",17,1154653,"0.0-4.0-13.0","1jxmswrvo6gh",NA,"Museum Afi gets robbed.","Reok","endures loss",11680,2,"gets robbed","Afi",NA,NA,"3",15,FALSE,NA,FALSE,0,0,"robber3"
"lawyer","Hize,Ena,Rivo,Upel,Lenik,Olef","analogues","hebb",18,1210302,"0.0-4.0-14.0","1jxmswrvo6gh",NA,"Lawyer Hize finds loophole Ena.","Ena","finds",23407,3,"finds","Hize","Hize","Ena","1",16,FALSE,FALSE,TRUE,0,0.333333333333333,"lawyer1"
"lawyer","Hize,Ena,Rivo,Upel,Lenik,Olef","analogues","hebb",18,1210302,"0.0-4.0-14.0","1jxmswrvo6gh",NA,"Loophole Ena bypasses contract of union Rivo.","Hize","bypasses sth. of",13528,3,"bypasses sth. of","Ena","Rivo","Rivo","2",16,FALSE,TRUE,TRUE,0,0.666666666666667,"lawyer2"
"lawyer","Hize,Ena,Rivo,Upel,Lenik,Olef","analogues","hebb",18,1210302,"0.0-4.0-14.0","1jxmswrvo6gh",NA,"Union Rivo loses a lawsuit.","Rivo","loses sth.",8159,2,"loses sth.","Rivo",NA,NA,"3",16,TRUE,NA,TRUE,0,1,"lawyer3"
"pump","Hoyl,Romap,Gena,Vuloz,Meuf,Yoges","fillers","hebb",19,1256513,"0.0-4.0-15.0","1jxmswrvo6gh",NA,"Plumber Hoyl installs pump Romap.","Meuf","installs",18534,3,"installs","Hoyl","Hoyl","Romap","1",17,FALSE,FALSE,TRUE,0,0.333333333333333,"pump1"
"pump","Hoyl,Romap,Gena,Vuloz,Meuf,Yoges","fillers","hebb",19,1256513,"0.0-4.0-15.0","1jxmswrvo6gh",NA,"Pump Romap sucks water from ground Gena.","Hoyl","sucks sth. from",9812,3,"sucks sth. from","Romap","Romap","Gena","2",17,FALSE,FALSE,TRUE,0,0.333333333333333,"pump2"
"pump","Hoyl,Romap,Gena,Vuloz,Meuf,Yoges","fillers","hebb",19,1256513,"0.0-4.0-15.0","1jxmswrvo6gh",NA,"Ground Gena dries up.","Romap","dries up",7303,2,"dries up","Gena",NA,NA,"3",17,FALSE,NA,TRUE,0,0.5,"pump3"
"mining","Hadith,Assit,Lothe,Puvi,Hosen,Dohod","fillers","hebb",20,1340286,"0.0-4.0-16.0","1jxmswrvo6gh",NA,"Mining company Hadith has a lot of resource Assit.","Assit","fills in for",45029,4,"has a lot of","Hadith","Puvi","Assit","1",18,FALSE,FALSE,FALSE,0,0,"mining1"
"mining","Hadith,Assit,Lothe,Puvi,Hosen,Dohod","fillers","hebb",20,1340286,"0.0-4.0-16.0","1jxmswrvo6gh",NA,"Resource Assit is sparse in country Lothe.","Puvi","has a lot of",16537,3,"is sparse in","Assit","Hosen","Lothe","2",18,FALSE,FALSE,FALSE,0,0,"mining2"
"mining","Hadith,Assit,Lothe,Puvi,Hosen,Dohod","fillers","hebb",20,1340286,"0.0-4.0-16.0","1jxmswrvo6gh",NA,"Country Lothe starts negotiating.","Hosen","starts negotiating",11647,2,"starts negotiating","Lothe",NA,NA,"3",18,FALSE,NA,TRUE,0,0.5,"mining3"
"school","Hosen,Potho,Kewos,Reok,Wutoc,Mewep","burns","hebb",4,271503,"0.0-4.0-0.0","1pt1nou79von",NA,"School girl Hosen beats boy Potho.","Hosen","beats",53299,8,"beats","Hosen","Potho","Potho","1",2,TRUE,TRUE,TRUE,0,1,"school1"
"school","Hosen,Potho,Kewos,Reok,Wutoc,Mewep","burns","hebb",4,271503,"0.0-4.0-0.0","1pt1nou79von",NA,"Boy Potho reports to teacher Kewos.","Hosen","beats",24116,3,"reports to","Potho","Potho","Kewos","2",2,FALSE,FALSE,FALSE,0,0,"school2"
"school","Hosen,Potho,Kewos,Reok,Wutoc,Mewep","burns","hebb",4,271503,"0.0-4.0-0.0","1pt1nou79von",NA,"Teacher Kewos calls parents.","Kewos","beats",34573,5,"calls parents","Kewos",NA,NA,"3",2,TRUE,NA,FALSE,0,0.5,"school3"
"insect","Misug,Vilux,Ifeh,Vivaf,Evib,Lothe","burns","hebb",5,352017,"0.0-4.0-1.0","1pt1nou79von",NA,"Perfume Misug attracts insect Vilux.","Misug","attracts",13869,3,"attracts","Misug","Vilux","Vilux","1",3,TRUE,TRUE,TRUE,0,1,"insect1"
"insect","Misug,Vilux,Ifeh,Vivaf,Evib,Lothe","burns","hebb",5,352017,"0.0-4.0-1.0","1pt1nou79von",NA,"Insect Vilux attacks woman Ifeh.","Vivaf","attacks",20856,3,"attacks","Vilux","Vilux","Ifeh","2",3,FALSE,FALSE,TRUE,0,0.333333333333333,"insect2"
"insect","Misug,Vilux,Ifeh,Vivaf,Evib,Lothe","burns","hebb",5,352017,"0.0-4.0-1.0","1pt1nou79von",NA,"Woman Ifeh has an allergic reaction.","Misug","attracts",35284,9,"has an allergic reaction","Ifeh",NA,NA,"3",3,FALSE,NA,FALSE,0,0,"insect3"
"meteo","Pishi,Owmi,Lenik,Eshbu,Zidep,Upum","burns","hebb",6,417755,"0.0-4.0-2.0","1pt1nou79von",NA,"Cloud Pishi collects humidity over ocean Owmi.","Pishi","is fertile",24062,3,"collects humidity over","Pishi","Owmi","Owmi","1",4,TRUE,TRUE,FALSE,0,0.666666666666667,"meteo1"
"meteo","Pishi,Owmi,Lenik,Eshbu,Zidep,Upum","burns","hebb",6,417755,"0.0-4.0-2.0","1pt1nou79von",NA,"Ocean Owmi lies next to the beaches of area Lenik.","Owmi","lies next to",18423,3,"lies next to","Owmi","Lenik","Lenik","2",4,TRUE,TRUE,TRUE,0,1,"meteo2"
"meteo","Pishi,Owmi,Lenik,Eshbu,Zidep,Upum","burns","hebb",6,417755,"0.0-4.0-2.0","1pt1nou79von",NA,"Area Lenik is fertile.","Lenik","is fertile",12751,2,"is fertile","Lenik",NA,NA,"3",4,TRUE,NA,TRUE,0,1,"meteo3"
"employee","Gena,Saly,Uyim,Hoyl,Dugoz,Romap","fillers","hebb",7,492373,"0.0-4.0-3.0","1pt1nou79von",NA,"Employee Gena is assigned to project Saly.","Gena","is assigned to",24718,3,"is assigned to","Gena","Saly","Saly","1",5,TRUE,TRUE,TRUE,0,1,"employee1"
"employee","Gena,Saly,Uyim,Hoyl,Dugoz,Romap","fillers","hebb",7,492373,"0.0-4.0-3.0","1pt1nou79von",NA,"Project Saly supports agenda of manager Uyim.","Saly","is assigned to",27733,3,"supports sth. of","Saly","Uyim","Uyim","2",5,TRUE,TRUE,FALSE,0,0.666666666666667,"employee2"
"employee","Gena,Saly,Uyim,Hoyl,Dugoz,Romap","fillers","hebb",7,492373,"0.0-4.0-3.0","1pt1nou79von",NA,"Manager Uyim gets a promotion.","Uyim","gets a promotion",11662,2,"gets a promotion","Uyim",NA,NA,"3",5,TRUE,NA,TRUE,0,1,"employee3"
"storm","Kesal,Ohuy,Vuloz,Gabit,Wecin,Meuf","fillers","hebb",8,557089,"0.0-4.0-4.0","1pt1nou79von",NA,"Storm Kesal hits tree Ohuy.","Kesal","hits",28630,3,"hits","Kesal","Ohuy","Ohuy","1",6,TRUE,TRUE,TRUE,0,1,"storm1"
"storm","Kesal,Ohuy,Vuloz,Gabit,Wecin,Meuf","fillers","hebb",8,557089,"0.0-4.0-4.0","1pt1nou79von",NA,"Tree Ohuy falls on trail of route Vuloz.","Ohuy","falls on",15366,3,"falls on","Ohuy","Vuloz","Vuloz","2",6,TRUE,TRUE,TRUE,0,1,"storm2"
"storm","Kesal,Ohuy,Vuloz,Gabit,Wecin,Meuf","fillers","hebb",8,557089,"0.0-4.0-4.0","1pt1nou79von",NA,"Route Vuloz is blocked.","Vuloz","is blocked",10217,2,"is blocked","Vuloz",NA,NA,"3",6,TRUE,NA,TRUE,0,1,"storm3"
"lawyer","Olef,Ihab,Eefar,Ofpoz,Henu,Assit","analogues","hebb",9,670176,"0.0-4.0-5.0","1pt1nou79von",NA,"Lawyer Olef finds loophole Ihab.","Ihab","detects",50945,3,"finds","Olef","Olef","Ihab","1",7,FALSE,FALSE,FALSE,0,0,"lawyer1"
"lawyer","Olef,Ihab,Eefar,Ofpoz,Henu,Assit","analogues","hebb",9,670176,"0.0-4.0-5.0","1pt1nou79von",NA,"Loophole Ihab bypasses contract of union Eefar.","Olef","overrides sth. of",29198,3,"bypasses sth. of","Ihab","Eefar","Eefar","2",7,FALSE,TRUE,FALSE,0,0.333333333333333,"lawyer2"
"lawyer","Olef,Ihab,Eefar,Ofpoz,Henu,Assit","analogues","hebb",9,670176,"0.0-4.0-5.0","1pt1nou79von",NA,"Union Eefar loses a lawsuit.","Ihab","loses sth.",22440,2,"loses sth.","Eefar",NA,NA,"3",7,FALSE,NA,TRUE,0,0.5,"lawyer3"
"crusader","Vipal,Zishu,Diaf,Idog,Turow,Ena","analogues","hebb",10,740480,"0.0-4.0-6.0","1pt1nou79von",NA,"Crusader group Vipal buys weapon Zishu.","Diaf","buys",28843,3,"buys","Vipal","Zishu","Zishu","1",8,FALSE,TRUE,TRUE,0,0.666666666666667,"crusader1"
"crusader","Vipal,Zishu,Diaf,Idog,Turow,Ena","analogues","hebb",10,740480,"0.0-4.0-6.0","1pt1nou79von",NA,"Weapon Zishu breaches the fortification of town Diaf.","Zishu","buys",16974,3,"breaches sth. of","Zishu","Diaf","Diaf","2",8,TRUE,TRUE,FALSE,0,0.666666666666667,"crusader2"
"crusader","Vipal,Zishu,Diaf,Idog,Turow,Ena","analogues","hebb",10,740480,"0.0-4.0-6.0","1pt1nou79von",NA,"Town Diaf is invaded.","Diaf","is invaded",13982,2,"is invaded","Diaf",NA,NA,"3",8,TRUE,NA,TRUE,0,1,"crusader3"
"farm","Thisun,Hize,Orok,Mabi,Lyde,Puvi","fillers","hebb",11,815020,"0.0-4.0-7.0","1pt1nou79von",NA,"Farmer Thisun purchases machine Hize.","Thisun","purchases",18607,3,"purchases","Thisun","Hize","Hize","1",9,TRUE,TRUE,TRUE,0,1,"farm1"
"farm","Thisun,Hize,Orok,Mabi,Lyde,Puvi","fillers","hebb",11,815020,"0.0-4.0-7.0","1pt1nou79von",NA,"Machine Hize can collect fruit of plant Orok.","Hize","are picked manually",28830,3,"can collect","Hize","Thisun","Orok","2",9,TRUE,FALSE,FALSE,0,0.333333333333333,"farm2"
"farm","Thisun,Hize,Orok,Mabi,Lyde,Puvi","fillers","hebb",11,815020,"0.0-4.0-7.0","1pt1nou79von",NA,"Plant Orok are harvested automatically.","Orok","are harvested automatically",16598,2,"are harvested automatically","Orok",NA,NA,"3",9,TRUE,NA,TRUE,0,1,"farm3"
"pump","Itbob,Eshov,Ebib,Kawud,Adjo,Ezol","fillers","hebb",12,885204,"0.0-4.0-8.0","1pt1nou79von",NA,"Plumber Itbob installs pump Eshov.","Itbob","installs",25469,3,"installs","Itbob","Eshov","Eshov","1",10,TRUE,TRUE,TRUE,0,1,"pump1"
"pump","Itbob,Eshov,Ebib,Kawud,Adjo,Ezol","fillers","hebb",12,885204,"0.0-4.0-8.0","1pt1nou79von",NA,"Pump Eshov sucks water from ground Ebib.","Eshov","sucks sth. from",21342,3,"sucks sth. from","Eshov","Ebib","Ebib","2",10,TRUE,TRUE,TRUE,0,1,"pump2"
"pump","Itbob,Eshov,Ebib,Kawud,Adjo,Ezol","fillers","hebb",12,885204,"0.0-4.0-8.0","1pt1nou79von",NA,"Ground Ebib dries up.","Ezol","dries up",12869,2,"dries up","Ebib",NA,NA,"3",10,FALSE,NA,TRUE,0,0.5,"pump3"
"bacteria","Yoges,Titho,Afi,Zimob,Eyem,Rove","analogues","hebb",13,971780,"0.0-4.0-9.0","1pt1nou79von",NA,"Bacteria Yoges emits enzyme Titho.","Yoges","emits",32858,6,"emits","Yoges","Titho","Titho","1",11,TRUE,TRUE,TRUE,0,1,"bacteria1"
"bacteria","Yoges,Titho,Afi,Zimob,Eyem,Rove","analogues","hebb",13,971780,"0.0-4.0-9.0","1pt1nou79von",NA,"Enzyme Titho dissolves the membrane of organ Afi.","Titho","dissolves sth. of",25476,3,"dissolves sth. of","Titho","Yoges","Afi","2",11,TRUE,FALSE,TRUE,0,0.666666666666667,"bacteria2"
"bacteria","Yoges,Titho,Afi,Zimob,Eyem,Rove","analogues","hebb",13,971780,"0.0-4.0-9.0","1pt1nou79von",NA,"Organ Afi fails.","Zimob","fails",17733,2,"fails","Afi",NA,NA,"3",11,FALSE,NA,TRUE,0,0.5,"bacteria3"
"fox","Ofes,Pobat,Ribi,Awiz,Rothuk,Pide","analogues","hebb",14,1041320,"0.0-4.0-10.0","1pt1nou79von",NA,"Fox Ofes digs tunnel Pobat.","Ofes","digs",20327,3,"digs","Ofes","Pobat","Pobat","1",12,TRUE,TRUE,TRUE,0,1,"fox1"
"fox","Ofes,Pobat,Ribi,Awiz,Rothuk,Pide","analogues","hebb",14,1041320,"0.0-4.0-10.0","1pt1nou79von",NA,"Tunnel Pobat leads to coop of chicken Ribi.","Pide","leads to sth. of",23767,3,"leads to sth. of","Pobat","Ribi","Ribi","2",12,FALSE,TRUE,TRUE,0,0.666666666666667,"fox2"
"fox","Ofes,Pobat,Ribi,Awiz,Rothuk,Pide","analogues","hebb",14,1041320,"0.0-4.0-10.0","1pt1nou79von",NA,"Chicken Ribi is devoured.","Ribi","is devoured",14942,2,"is devoured","Ribi",NA,NA,"3",12,TRUE,NA,TRUE,0,1,"fox3"
"fish","Roze,Gelyp,Felac,Dohod,Napib,Inag","burns","hebb",16,1145576,"0.0-4.0-12.0","1pt1nou79von",NA,"Fisher Roze cultivates sea grass Gelyp.","Roze","cultivates",19821,3,"cultivates","Roze","Gelyp","Gelyp","1",14,TRUE,TRUE,TRUE,0,1,"fish1"
"fish","Roze,Gelyp,Felac,Dohod,Napib,Inag","burns","hebb",16,1145576,"0.0-4.0-12.0","1pt1nou79von",NA,"Sea grass Gelyp is eaten by fish Felac.","Gelyp","is eaten by",38799,7,"is eaten by","Gelyp","Felac","Felac","2",14,TRUE,TRUE,TRUE,0,1,"fish2"
"fish","Roze,Gelyp,Felac,Dohod,Napib,Inag","burns","hebb",16,1145576,"0.0-4.0-12.0","1pt1nou79von",NA,"Fish Felac is captured.","Felac","is captured",12734,2,"is captured","Felac",NA,NA,"3",14,TRUE,NA,TRUE,0,1,"fish3"
"neighbor","Wehif,Uwit,Avyth,Ahow,Ohan,Aid","fillers","hebb",17,1216490,"0.0-4.0-13.0","1pt1nou79von",NA,"Man Wehif takes care of cat Uwit.","Wehif","takes care of",26861,3,"takes care of","Wehif","Uwit","Uwit","1",15,TRUE,TRUE,TRUE,0,1,"neighbor1"
"neighbor","Wehif,Uwit,Avyth,Ahow,Ohan,Aid","fillers","hebb",17,1216490,"0.0-4.0-13.0","1pt1nou79von",NA,"Cat Uwit walks over the flowers of neighbor Avyth","Uwit","looks after",21973,3,"walks over sth. of","Uwit","Avyth","Avyth","2",15,TRUE,TRUE,FALSE,0,0.666666666666667,"neighbor2"
"neighbor","Wehif,Uwit,Avyth,Ahow,Ohan,Aid","fillers","hebb",17,1216490,"0.0-4.0-13.0","1pt1nou79von",NA,"Neighbor Avyth gets angry.","Avyth","gets angry",11574,2,"gets angry","Avyth",NA,NA,"3",15,TRUE,NA,TRUE,0,1,"neighbor3"
"mining","Ubug,Owih,Uhuy,Ilres,Epnux,Thuha","fillers","hebb",18,1288211,"0.0-4.0-14.0","1pt1nou79von",NA,"Mining company Ubug has a lot of resource Owih.","Uhuy","is rarely found in",27798,3,"has a lot of","Ubug","Owih","Owih","1",16,FALSE,TRUE,FALSE,0,0.333333333333333,"mining1"
"mining","Ubug,Owih,Uhuy,Ilres,Epnux,Thuha","fillers","hebb",18,1288211,"0.0-4.0-14.0","1pt1nou79von",NA,"Resource Owih is sparse in country Uhuy.","Owih","is sparse in",19878,3,"is sparse in","Owih","Uhuy","Uhuy","2",16,TRUE,TRUE,TRUE,0,1,"mining2"
"mining","Ubug,Owih,Uhuy,Ilres,Epnux,Thuha","fillers","hebb",18,1288211,"0.0-4.0-14.0","1pt1nou79von",NA,"Country Uhuy starts negotiating.","Uhuy","starts negotiating",13541,2,"starts negotiating","Uhuy",NA,NA,"3",16,TRUE,NA,TRUE,0,1,"mining3"
"hacker","Yuxeh,Hadith,Ewey,Thygef,Paza,Mawi","analogues","hebb",19,1353364,"0.0-4.0-15.0","1pt1nou79von",NA,"Hacker Yuxeh writes computer code Hadith.","Yuxeh","writes",23699,3,"writes","Yuxeh","Ewey","Hadith","1",17,TRUE,FALSE,TRUE,0,0.666666666666667,"hacker1"
"hacker","Yuxeh,Hadith,Ewey,Thygef,Paza,Mawi","analogues","hebb",19,1353364,"0.0-4.0-15.0","1pt1nou79von",NA,"Code Hadith cracks the firewall of company Ewey.","Hadith","cracks sth. of",15600,3,"cracks sth. of","Hadith","Ewey","Ewey","2",17,TRUE,TRUE,TRUE,0,1,"hacker2"
"hacker","Yuxeh,Hadith,Ewey,Thygef,Paza,Mawi","analogues","hebb",19,1353364,"0.0-4.0-15.0","1pt1nou79von",NA,"Company Ewey suffers a data loss.","Ewey","suffers sth.",15350,2,"suffers sth.","Ewey",NA,NA,"3",17,TRUE,NA,TRUE,0,1,"hacker3"
"robber","Enmob,Rivo,Molash,Huluw,Upno,Thusoth","analogues","hebb",20,1432861,"0.0-4.0-16.0","1pt1nou79von",NA,"Criminal Enmob learns about security issue Rivo.","Enmob","suspends sth. of",28030,3,"learns about","Enmob","Rivo","Rivo","1",18,TRUE,TRUE,FALSE,0,0.666666666666667,"robber1"
"robber","Enmob,Rivo,Molash,Huluw,Upno,Thusoth","analogues","hebb",20,1432861,"0.0-4.0-16.0","1pt1nou79von",NA,"Security issue Rivo suspends alarm system of museum Molash.","Rivo","gets robbed",24468,3,"suspends sth. of","Rivo","Molash","Molash","2",18,TRUE,TRUE,FALSE,0,0.666666666666667,"robber2"
"robber","Enmob,Rivo,Molash,Huluw,Upno,Thusoth","analogues","hebb",20,1432861,"0.0-4.0-16.0","1pt1nou79von",NA,"Museum Molash gets robbed.","Molash","gets robbed",16495,2,"gets robbed","Molash",NA,NA,"3",18,TRUE,NA,TRUE,0,1,"robber3"
"fish","Ahow,Thusoth,Upum,Huluw,Avyth,Mabi","burns","hebb",4,83356,"0.0-4.0-0.0","2ogc1k57zcp8",NA,"Fisher Ahow cultivates sea grass Thusoth.","Ahow","cultivates",9602,3,"cultivates","Ahow","Thusoth","Thusoth","1",2,TRUE,TRUE,TRUE,0,1,"fish1"
"fish","Ahow,Thusoth,Upum,Huluw,Avyth,Mabi","burns","hebb",4,83356,"0.0-4.0-0.0","2ogc1k57zcp8",NA,"Sea grass Thusoth is eaten by fish Upum.","Thusoth","is eaten by",9390,3,"is eaten by","Thusoth","Upum","Upum","2",2,TRUE,TRUE,TRUE,0,1,"fish2"
"fish","Ahow,Thusoth,Upum,Huluw,Avyth,Mabi","burns","hebb",4,83356,"0.0-4.0-0.0","2ogc1k57zcp8",NA,"Fish Upum is captured.","Upum","is captured",6657,2,"is captured","Upum",NA,NA,"3",2,TRUE,NA,TRUE,0,1,"fish3"
"meteo","Ofpoz,Eyem,Pide,Turow,Titho,Ewey","burns","hebb",5,133717,"0.0-4.0-1.0","2ogc1k57zcp8",NA,"Cloud Ofpoz collects humidity over ocean Eyem.","Ofpoz","collects humidity over",12043,3,"collects humidity over","Ofpoz","Eyem","Eyem","1",3,TRUE,TRUE,TRUE,0,1,"meteo1"
"meteo","Ofpoz,Eyem,Pide,Turow,Titho,Ewey","burns","hebb",5,133717,"0.0-4.0-1.0","2ogc1k57zcp8",NA,"Ocean Eyem lies next to the beaches of area Pide.","Eyem","lies next to",16759,4,"lies next to","Eyem","Pide","Pide","2",3,TRUE,TRUE,TRUE,0,1,"meteo2"
"meteo","Ofpoz,Eyem,Pide,Turow,Titho,Ewey","burns","hebb",5,133717,"0.0-4.0-1.0","2ogc1k57zcp8",NA,"Area Pide is fertile.","Pide","is fertile",11052,3,"is fertile","Pide",NA,NA,"3",3,TRUE,NA,TRUE,0,1,"meteo3"
"school","Zidep,Uwit,Ifeh,Ottha,Eshbu,Romap","burns","hebb",6,179229,"0.0-4.0-2.0","2ogc1k57zcp8",NA,"School girl Zidep beats boy Uwit.","Zidep","beats",12992,4,"beats","Zidep","Uwit","Uwit","1",4,TRUE,TRUE,TRUE,0,1,"school1"
"school","Zidep,Uwit,Ifeh,Ottha,Eshbu,Romap","burns","hebb",6,179229,"0.0-4.0-2.0","2ogc1k57zcp8",NA,"Boy Uwit reports to teacher Ifeh.","Uwit","reports to",15779,3,"reports to","Uwit","Ifeh","Ifeh","2",4,TRUE,TRUE,TRUE,0,1,"school2"
"school","Zidep,Uwit,Ifeh,Ottha,Eshbu,Romap","burns","hebb",6,179229,"0.0-4.0-2.0","2ogc1k57zcp8",NA,"Teacher Ifeh calls parents.","Ifeh","calls parents",6234,2,"calls parents","Ifeh",NA,NA,"3",4,TRUE,NA,TRUE,0,1,"school3"
"mining","Dugoz,Lothe,Ubug,Potho,Orok,Gabit","fillers","hebb",7,217664,"0.0-4.0-3.0","2ogc1k57zcp8",NA,"Mining company Dugoz has a lot of resource Lothe.","Dugoz","has a lot of",10715,3,"has a lot of","Dugoz","Lothe","Lothe","1",5,TRUE,TRUE,TRUE,0,1,"mining1"
"mining","Dugoz,Lothe,Ubug,Potho,Orok,Gabit","fillers","hebb",7,217664,"0.0-4.0-3.0","2ogc1k57zcp8",NA,"Resource Lothe is sparse in country Ubug.","Lothe","is sparse in",10721,3,"is sparse in","Lothe","Ubug","Ubug","2",5,TRUE,TRUE,TRUE,0,1,"mining2"
"mining","Dugoz,Lothe,Ubug,Potho,Orok,Gabit","fillers","hebb",7,217664,"0.0-4.0-3.0","2ogc1k57zcp8",NA,"Country Ubug starts negotiating.","Ubug","starts negotiating",6491,3,"starts negotiating","Ubug",NA,NA,"3",5,TRUE,NA,TRUE,0,1,"mining3"
"storm","Meuf,Ohuy,Lenik,Mewep,Ezol,Yuxeh","fillers","hebb",8,259168,"0.0-4.0-4.0","2ogc1k57zcp8",NA,"Storm Meuf hits tree Ohuy.","Meuf","hits",13473,3,"hits","Meuf","Ohuy","Ohuy","1",6,TRUE,TRUE,TRUE,0,1,"storm1"
"storm","Meuf,Ohuy,Lenik,Mewep,Ezol,Yuxeh","fillers","hebb",8,259168,"0.0-4.0-4.0","2ogc1k57zcp8",NA,"Tree Ohuy falls on trail of route Lenik.","Ohuy","falls on",9363,3,"falls on","Ohuy","Lenik","Lenik","2",6,TRUE,TRUE,TRUE,0,1,"storm2"
"storm","Meuf,Ohuy,Lenik,Mewep,Ezol,Yuxeh","fillers","hebb",8,259168,"0.0-4.0-4.0","2ogc1k57zcp8",NA,"Route Lenik is blocked.","Lenik","is blocked",8160,3,"is blocked","Lenik",NA,NA,"3",6,TRUE,NA,TRUE,0,1,"storm3"
"bacteria","Afi,Pishi,Upno,Reok,Ilres,Misug","analogues","hebb",9,298919,"0.0-4.0-5.0","2ogc1k57zcp8",NA,"Bacteria Afi emits enzyme Pishi.","Afi","emits",10880,4,"emits","Afi","Pishi","Pishi","1",7,TRUE,TRUE,TRUE,0,1,"bacteria1"
"bacteria","Afi,Pishi,Upno,Reok,Ilres,Misug","analogues","hebb",9,298919,"0.0-4.0-5.0","2ogc1k57zcp8",NA,"Enzyme Pishi dissolves the membrane of organ Upno.","Pishi","dissolves sth. of",12715,4,"dissolves sth. of","Pishi","Upno","Upno","2",7,TRUE,TRUE,TRUE,0,1,"bacteria2"
"bacteria","Afi,Pishi,Upno,Reok,Ilres,Misug","analogues","hebb",9,298919,"0.0-4.0-5.0","2ogc1k57zcp8",NA,"Organ Upno fails.","Upno","fails",5649,2,"fails","Upno",NA,NA,"3",7,TRUE,NA,TRUE,0,1,"bacteria3"
"lawyer","Uyim,Lyde,Hosen,Niem,Itbob,Enmob","analogues","hebb",10,335835,"0.0-4.0-6.0","2ogc1k57zcp8",NA,"Lawyer Uyim finds loophole Lyde.","Uyim","finds",10079,3,"finds","Uyim","Lyde","Lyde","1",8,TRUE,TRUE,TRUE,0,1,"lawyer1"
"lawyer","Uyim,Lyde,Hosen,Niem,Itbob,Enmob","analogues","hebb",10,335835,"0.0-4.0-6.0","2ogc1k57zcp8",NA,"Loophole Lyde bypasses contract of union Hosen.","Lyde","bypasses sth. of",10292,3,"bypasses sth. of","Lyde","Hosen","Hosen","2",8,TRUE,TRUE,TRUE,0,1,"lawyer2"
"lawyer","Uyim,Lyde,Hosen,Niem,Itbob,Enmob","analogues","hebb",10,335835,"0.0-4.0-6.0","2ogc1k57zcp8",NA,"Union Hosen loses a lawsuit.","Hosen","loses sth.",6039,2,"loses sth.","Hosen",NA,NA,"3",8,TRUE,NA,TRUE,0,1,"lawyer3"
"neighbor","Henu,Roze,Kawud,Afik,Assit,Gena","fillers","hebb",11,372063,"0.0-4.0-7.0","2ogc1k57zcp8",NA,"Man Henu takes care of cat Roze.","Henu","takes care of",9097,3,"takes care of","Henu","Roze","Roze","1",9,TRUE,TRUE,TRUE,0,1,"neighbor1"
"neighbor","Henu,Roze,Kawud,Afik,Assit,Gena","fillers","hebb",11,372063,"0.0-4.0-7.0","2ogc1k57zcp8",NA,"Cat Roze walks over the flowers of neighbor Kawud","Roze","walks over sth. of",9286,3,"walks over sth. of","Roze","Kawud","Kawud","2",9,TRUE,TRUE,TRUE,0,1,"neighbor2"
"neighbor","Henu,Roze,Kawud,Afik,Assit,Gena","fillers","hebb",11,372063,"0.0-4.0-7.0","2ogc1k57zcp8",NA,"Neighbor Kawud gets angry.","Kawud","gets angry",7339,2,"gets angry","Kawud",NA,NA,"3",9,TRUE,NA,TRUE,0,1,"neighbor3"
"employee","Matmag,Uhuy,Molash,Fozeh,Uvman,Mawi","fillers","hebb",12,409681,"0.0-4.0-8.0","2ogc1k57zcp8",NA,"Employee Matmag is assigned to project Uhuy.","Matmag","is assigned to",8240,3,"is assigned to","Matmag","Uhuy","Uhuy","1",10,TRUE,TRUE,TRUE,0,1,"employee1"
"employee","Matmag,Uhuy,Molash,Fozeh,Uvman,Mawi","fillers","hebb",12,409681,"0.0-4.0-8.0","2ogc1k57zcp8",NA,"Project Uhuy supports agenda of manager Molash.","Uhuy","supports sth. of",11600,3,"supports sth. of","Uhuy","Molash","Molash","2",10,TRUE,TRUE,TRUE,0,1,"employee2"
"employee","Matmag,Uhuy,Molash,Fozeh,Uvman,Mawi","fillers","hebb",12,409681,"0.0-4.0-8.0","2ogc1k57zcp8",NA,"Manager Molash gets a promotion.","Molash","gets a promotion",7271,2,"gets a promotion","Molash",NA,NA,"3",10,TRUE,NA,TRUE,0,1,"employee3"
"hacker","Thyra,Hoyl,Kewos,Aid,Ebib,Adjo","analogues","hebb",13,448972,"0.0-4.0-9.0","2ogc1k57zcp8",NA,"Hacker Thyra writes computer code Hoyl.","Thyra","writes",13699,4,"writes","Thyra","Hoyl","Hoyl","1",11,TRUE,TRUE,TRUE,0,1,"hacker1"
"hacker","Thyra,Hoyl,Kewos,Aid,Ebib,Adjo","analogues","hebb",13,448972,"0.0-4.0-9.0","2ogc1k57zcp8",NA,"Code Hoyl cracks the firewall of company Kewos.","Hoyl","cracks sth. of",8820,3,"cracks sth. of","Hoyl","Kewos","Kewos","2",11,TRUE,TRUE,TRUE,0,1,"hacker2"
"hacker","Thyra,Hoyl,Kewos,Aid,Ebib,Adjo","analogues","hebb",13,448972,"0.0-4.0-9.0","2ogc1k57zcp8",NA,"Company Kewos suffers a data loss.","Kewos","suffers sth.",6265,2,"suffers sth.","Kewos",NA,NA,"3",11,TRUE,NA,TRUE,0,1,"hacker3"
"crusader","Goxos,Puvi,Zimob,Soav,Ofes,Hadith","analogues","hebb",14,491269,"0.0-4.0-10.0","2ogc1k57zcp8",NA,"Crusader group Goxos buys weapon Puvi.","Goxos","breaches sth. of",10499,3,"buys","Goxos","Puvi","Puvi","1",12,TRUE,TRUE,FALSE,0,0.666666666666667,"crusader1"
"crusader","Goxos,Puvi,Zimob,Soav,Ofes,Hadith","analogues","hebb",14,491269,"0.0-4.0-10.0","2ogc1k57zcp8",NA,"Weapon Puvi breaches the fortification of town Zimob.","Puvi","is infiltrated",10871,3,"breaches sth. of","Puvi","Zimob","Zimob","2",12,TRUE,TRUE,FALSE,0,0.666666666666667,"crusader2"
"crusader","Goxos,Puvi,Zimob,Soav,Ofes,Hadith","analogues","hebb",14,491269,"0.0-4.0-10.0","2ogc1k57zcp8",NA,"Town Zimob is invaded.","Zimob","is invaded",10421,2,"is invaded","Zimob",NA,NA,"3",12,TRUE,NA,TRUE,0,1,"crusader3"
"insect","Ihab,Vivaf,Wehif,Saly,Evib,Yoges","burns","hebb",16,547859,"0.0-4.0-12.0","2ogc1k57zcp8",NA,"Perfume Ihab attracts insect Vivaf.","Ihab","attracts",14727,5,"attracts","Ihab","Vivaf","Vivaf","1",14,TRUE,TRUE,TRUE,0,1,"insect1"
"insect","Ihab,Vivaf,Wehif,Saly,Evib,Yoges","burns","hebb",16,547859,"0.0-4.0-12.0","2ogc1k57zcp8",NA,"Insect Vivaf attacks woman Wehif.","Vivaf","attacks",9815,3,"attacks","Vivaf","Wehif","Wehif","2",14,TRUE,TRUE,TRUE,0,1,"insect2"
"insect","Ihab,Vivaf,Wehif,Saly,Evib,Yoges","burns","hebb",16,547859,"0.0-4.0-12.0","2ogc1k57zcp8",NA,"Woman Wehif has an allergic reaction.","Wehif","has an allergic reaction",7359,2,"has an allergic reaction","Wehif",NA,NA,"3",14,TRUE,NA,TRUE,0,1,"insect3"
"farm","Rove,Wecin,Eefar,Zugew,Igoth,Gelyp","fillers","hebb",17,584971,"0.0-4.0-13.0","2ogc1k57zcp8",NA,"Farmer Rove purchases machine Wecin.","Rove","purchases",12008,3,"purchases","Rove","Wecin","Wecin","1",15,TRUE,TRUE,TRUE,0,1,"farm1"
"farm","Rove,Wecin,Eefar,Zugew,Igoth,Gelyp","fillers","hebb",17,584971,"0.0-4.0-13.0","2ogc1k57zcp8",NA,"Machine Wecin can collect fruit of plant Eefar.","Wecin","can collect",8577,3,"can collect","Wecin","Eefar","Eefar","2",15,TRUE,TRUE,TRUE,0,1,"farm2"
"farm","Rove,Wecin,Eefar,Zugew,Igoth,Gelyp","fillers","hebb",17,584971,"0.0-4.0-13.0","2ogc1k57zcp8",NA,"Plant Eefar are harvested automatically.","Eefar","are harvested automatically",6021,2,"are harvested automatically","Eefar",NA,NA,"3",15,TRUE,NA,TRUE,0,1,"farm3"
"pump","Eshov,Paza,Thygef,Ena,Pobat,Zishu","fillers","hebb",18,619364,"0.0-4.0-14.0","2ogc1k57zcp8",NA,"Plumber Eshov installs pump Paza.","Eshov","installs",9321,3,"installs","Eshov","Paza","Paza","1",16,TRUE,TRUE,TRUE,0,1,"pump1"
"pump","Eshov,Paza,Thygef,Ena,Pobat,Zishu","fillers","hebb",18,619364,"0.0-4.0-14.0","2ogc1k57zcp8",NA,"Pump Paza sucks water from ground Thygef.","Paza","sucks sth. from",8259,3,"sucks sth. from","Paza","Thygef","Thygef","2",16,TRUE,TRUE,TRUE,0,1,"pump2"
"pump","Eshov,Paza,Thygef,Ena,Pobat,Zishu","fillers","hebb",18,619364,"0.0-4.0-14.0","2ogc1k57zcp8",NA,"Ground Thygef dries up.","Thygef","dries up",6306,2,"dries up","Thygef",NA,NA,"3",16,TRUE,NA,TRUE,0,1,"pump3"
"robber","Felac,Awiz,Newi,Vipal,Diaf,Epnux","analogues","hebb",19,651906,"0.0-4.0-15.0","2ogc1k57zcp8",NA,"Criminal Felac learns about security issue Awiz.","Felac","learns about",8014,3,"learns about","Felac","Awiz","Awiz","1",17,TRUE,TRUE,TRUE,0,1,"robber1"
"robber","Felac,Awiz,Newi,Vipal,Diaf,Epnux","analogues","hebb",19,651906,"0.0-4.0-15.0","2ogc1k57zcp8",NA,"Security issue Awiz suspends alarm system of museum Newi.","Awiz","suspends sth. of",7568,3,"suspends sth. of","Awiz","Newi","Newi","2",17,TRUE,TRUE,TRUE,0,1,"robber2"
"robber","Felac,Awiz,Newi,Vipal,Diaf,Epnux","analogues","hebb",19,651906,"0.0-4.0-15.0","2ogc1k57zcp8",NA,"Museum Newi gets robbed.","Newi","gets robbed",6452,2,"gets robbed","Newi",NA,NA,"3",17,TRUE,NA,TRUE,0,1,"robber3"
"fox","Napib,Owmi,Thuha,Vilux,Upel,Idog","analogues","hebb",20,726956,"0.0-4.0-16.0","2ogc1k57zcp8",NA,"Fox Napib digs tunnel Owmi.","Napib","digs",21176,5,"digs","Napib","Owmi","Owmi","1",18,TRUE,TRUE,TRUE,0,1,"fox1"
"fox","Napib,Owmi,Thuha,Vilux,Upel,Idog","analogues","hebb",20,726956,"0.0-4.0-16.0","2ogc1k57zcp8",NA,"Tunnel Owmi leads to coop of chicken Thuha.","Owmi","leads to sth. of",8802,3,"leads to sth. of","Owmi","Thuha","Thuha","2",18,TRUE,TRUE,TRUE,0,1,"fox2"
"fox","Napib,Owmi,Thuha,Vilux,Upel,Idog","analogues","hebb",20,726956,"0.0-4.0-16.0","2ogc1k57zcp8",NA,"Chicken Thuha is devoured.","Thuha","is devoured",34567,3,"is devoured","Thuha",NA,NA,"3",18,TRUE,NA,TRUE,0,1,"fox3"
"school","Soav,Puvi,Ewey,Uwit,Owmi,Thusoth","burns","hebb",4,136522,"0.0-4.0-0.0","33t4bhb7413j",NA,"School girl Soav hits boy Puvi.","Puvi","hits",24059,4,"hits","Soav","Soav","Puvi","1",2,FALSE,FALSE,TRUE,0,0.333333333333333,"school1"
"school","Soav,Puvi,Ewey,Uwit,Owmi,Thusoth","burns","hebb",4,136522,"0.0-4.0-0.0","33t4bhb7413j",NA,"Boy Puvi reports to teacher Ewey.","Soav","reports to",15845,3,"reports to","Puvi","Owmi","Ewey","2",2,FALSE,FALSE,TRUE,0,0.333333333333333,"school2"
"school","Soav,Puvi,Ewey,Uwit,Owmi,Thusoth","burns","hebb",4,136522,"0.0-4.0-0.0","33t4bhb7413j",NA,"Teacher Ewey calls parents.","Owmi","calls parents",5780,2,"calls parents","Ewey",NA,NA,"3",2,FALSE,NA,TRUE,0,0.5,"school3"
"meteo","Turow,Afi,Enmob,Hoyl,Owih,Ihab","burns","hebb",5,186670,"0.0-4.0-1.0","33t4bhb7413j",NA,"Cloud Turow collects humidity over ocean Afi.","Turow","collects humidity over",16549,3,"collects humidity over","Turow","Afi","Afi","1",3,TRUE,TRUE,TRUE,0,1,"meteo1"
"meteo","Turow,Afi,Enmob,Hoyl,Owih,Ihab","burns","hebb",5,186670,"0.0-4.0-1.0","33t4bhb7413j",NA,"Ocean Afi lies next to the beaches of area Enmob.","Afi","is located near",10901,3,"lies next to","Afi","Enmob","Enmob","2",3,TRUE,TRUE,FALSE,0,0.666666666666667,"meteo2"
"meteo","Turow,Afi,Enmob,Hoyl,Owih,Ihab","burns","hebb",5,186670,"0.0-4.0-1.0","33t4bhb7413j",NA,"Area Enmob is fertile.","Enmob","is fertile",12194,2,"is fertile","Enmob",NA,NA,"3",3,TRUE,NA,TRUE,0,1,"meteo3"
"insect","Awiz,Ofpoz,Newi,Olag,Epnux,Eshov","burns","hebb",6,243815,"0.0-4.0-2.0","33t4bhb7413j",NA,"Perfume Awiz attracts insect Ofpoz.","Awiz","attracts",16326,3,"attracts","Awiz","Newi","Ofpoz","1",4,TRUE,FALSE,TRUE,0,0.666666666666667,"insect1"
"insect","Awiz,Ofpoz,Newi,Olag,Epnux,Eshov","burns","hebb",6,243815,"0.0-4.0-2.0","33t4bhb7413j",NA,"Insect Ofpoz attacks woman Newi.","Newi","has an allergic reaction",13900,3,"attacks","Ofpoz","Awiz","Newi","2",4,FALSE,FALSE,FALSE,0,0,"insect2"
"insect","Awiz,Ofpoz,Newi,Olag,Epnux,Eshov","burns","hebb",6,243815,"0.0-4.0-2.0","33t4bhb7413j",NA,"Woman Newi has an allergic reaction.","Awiz","attacks",16414,2,"has an allergic reaction","Newi",NA,NA,"3",4,FALSE,NA,FALSE,0,0,"insect3"
"farm","Afik,Ifeh,Napib,Kesal,Itbob,Kawud","fillers","hebb",7,305150,"0.0-4.0-3.0","33t4bhb7413j",NA,"Farmer Afik bought machine Ifeh.","Afik","bought",20870,3,"bought","Afik","Itbob","Ifeh","1",5,TRUE,FALSE,TRUE,0,0.666666666666667,"farm1"
"farm","Afik,Ifeh,Napib,Kesal,Itbob,Kawud","fillers","hebb",7,305150,"0.0-4.0-3.0","33t4bhb7413j",NA,"Machine Ifeh can collect fruit of plant Napib.","Itbob","purchased",20618,3,"can collect","Ifeh","Ifeh","Napib","2",5,FALSE,FALSE,FALSE,0,0,"farm2"
"farm","Afik,Ifeh,Napib,Kesal,Itbob,Kawud","fillers","hebb",7,305150,"0.0-4.0-3.0","33t4bhb7413j",NA,"Plant Napib are harvested automatically.","Ifeh","are harvested automatically",9343,2,"are harvested automatically","Napib",NA,NA,"3",5,FALSE,NA,TRUE,0,0.5,"farm3"
"neighbor","Wehif,Assit,Ohuy,Wecin,Aid,Hize","fillers","hebb",8,355538,"0.0-4.0-4.0","33t4bhb7413j",NA,"Man Wehif takes care of cat Assit.","Wecin","takes care of",19851,4,"takes care of","Wehif","Ohuy","Assit","1",6,FALSE,FALSE,TRUE,0,0.333333333333333,"neighbor1"
"neighbor","Wehif,Assit,Ohuy,Wecin,Aid,Hize","fillers","hebb",8,355538,"0.0-4.0-4.0","33t4bhb7413j",NA,"Cat Assit walks over the flowers of neighbor Ohuy","Ohuy","walks over sth. of",12470,3,"walks over sth. of","Assit","Wehif","Ohuy","2",6,FALSE,FALSE,TRUE,0,0.333333333333333,"neighbor2"
"neighbor","Wehif,Assit,Ohuy,Wecin,Aid,Hize","fillers","hebb",8,355538,"0.0-4.0-4.0","33t4bhb7413j",NA,"Neighbor Ohuy gets angry.","Wehif","gets angry",7562,2,"gets angry","Ohuy",NA,NA,"3",6,FALSE,NA,TRUE,0,0.5,"neighbor3"
"crusader","Yoges,Ribi,Wutoc,Lenik,Uhuy,Zugew","analogues","hebb",9,403777,"0.0-4.0-5.0","33t4bhb7413j",NA,"Crusader group Yoges bought weapon Ribi.","Wutoc","bought",15273,3,"bought","Yoges","Ribi","Ribi","1",7,FALSE,TRUE,TRUE,0,0.666666666666667,"crusader1"
"crusader","Yoges,Ribi,Wutoc,Lenik,Uhuy,Zugew","analogues","hebb",9,403777,"0.0-4.0-5.0","33t4bhb7413j",NA,"Weapon Ribi breaches the fortification of town Wutoc.","Ribi","acquired",15140,3,"breaches sth. of","Ribi","Yoges","Wutoc","2",7,TRUE,FALSE,FALSE,0,0.333333333333333,"crusader2"
"crusader","Yoges,Ribi,Wutoc,Lenik,Uhuy,Zugew","analogues","hebb",9,403777,"0.0-4.0-5.0","33t4bhb7413j",NA,"Town Wutoc is invaded.","Ribi","is invaded",7322,2,"is invaded","Wutoc",NA,NA,"3",7,FALSE,NA,TRUE,0,0.5,"crusader3"
"robber","Ena,Huluw,Upno,Thisun,Ottha,Zishu","analogues","hebb",10,458111,"0.0-4.0-6.0","33t4bhb7413j",NA,"Criminal Ena learns about security issue Huluw.","Upno","finds out about",16214,3,"learns about","Ena","Ena","Huluw","1",8,FALSE,FALSE,FALSE,0,0,"robber1"
"robber","Ena,Huluw,Upno,Thisun,Ottha,Zishu","analogues","hebb",10,458111,"0.0-4.0-6.0","33t4bhb7413j",NA,"Security issue Huluw suspends alarm system of museum Upno.","Ena","gets robbed",20039,3,"suspends sth. of","Huluw","Ottha","Upno","2",8,FALSE,FALSE,FALSE,0,0,"robber2"
"robber","Ena,Huluw,Upno,Thisun,Ottha,Zishu","analogues","hebb",10,458111,"0.0-4.0-6.0","33t4bhb7413j",NA,"Museum Upno gets robbed.","Ottha","endures loss",7577,2,"gets robbed","Upno",NA,NA,"3",8,FALSE,NA,FALSE,0,0,"robber3"
"employee","Uyim,Eshbu,Roze,Igoth,Evib,Matmag","fillers","hebb",11,510160,"0.0-4.0-7.0","33t4bhb7413j",NA,"Employee Uyim is assigned to project Eshbu.","Evib","is assigned to",18745,3,"is assigned to","Uyim","Matmag","Eshbu","1",9,FALSE,FALSE,TRUE,0,0.333333333333333,"employee1"
"employee","Uyim,Eshbu,Roze,Igoth,Evib,Matmag","fillers","hebb",11,510160,"0.0-4.0-7.0","33t4bhb7413j",NA,"Project Eshbu supports agenda of manager Roze.","Matmag","gets an advancement",17603,3,"supports sth. of","Eshbu","Roze","Roze","2",9,FALSE,TRUE,FALSE,0,0.333333333333333,"employee2"
"employee","Uyim,Eshbu,Roze,Igoth,Evib,Matmag","fillers","hebb",11,510160,"0.0-4.0-7.0","33t4bhb7413j",NA,"Manager Roze gets a promotion.","Roze","gets a promotion",5196,2,"gets a promotion","Roze",NA,NA,"3",9,TRUE,NA,TRUE,0,1,"employee3"
"mining","Diaf,Eyem,Reok,Gabit,Adjo,Vilux","fillers","hebb",12,560217,"0.0-4.0-8.0","33t4bhb7413j",NA,"Mining company Diaf has a lot of resource Eyem.","Diaf","is filled with",14458,3,"has a lot of","Diaf","Eyem","Eyem","1",10,TRUE,TRUE,FALSE,0,0.666666666666667,"mining1"
"mining","Diaf,Eyem,Reok,Gabit,Adjo,Vilux","fillers","hebb",12,560217,"0.0-4.0-8.0","33t4bhb7413j",NA,"Resource Eyem is sparse in country Reok.","Eyem","has a lot of",19440,3,"is sparse in","Eyem","Reok","Reok","2",10,TRUE,TRUE,FALSE,0,0.666666666666667,"mining2"
"mining","Diaf,Eyem,Reok,Gabit,Adjo,Vilux","fillers","hebb",12,560217,"0.0-4.0-8.0","33t4bhb7413j",NA,"Country Reok starts negotiating.","Reok","starts trading",5655,2,"starts negotiating","Reok",NA,NA,"3",10,TRUE,NA,FALSE,0,0.5,"mining3"
"bacteria","Rivo,Zimob,Ezol,Goxos,Ohan,Thygef","analogues","hebb",13,600752,"0.0-4.0-9.0","33t4bhb7413j",NA,"Bacteria Rivo emits enzyme Zimob.","Ezol","emits",11022,3,"emits","Rivo","Goxos","Zimob","1",11,FALSE,FALSE,TRUE,0,0.333333333333333,"bacteria1"
"bacteria","Rivo,Zimob,Ezol,Goxos,Ohan,Thygef","analogues","hebb",13,600752,"0.0-4.0-9.0","33t4bhb7413j",NA,"Enzyme Zimob dissolves the membrane of organ Ezol.","Rivo","emits",12562,3,"dissolves sth. of","Zimob","Zimob","Ezol","2",11,FALSE,FALSE,FALSE,0,0,"bacteria2"
"bacteria","Rivo,Zimob,Ezol,Goxos,Ohan,Thygef","analogues","hebb",13,600752,"0.0-4.0-9.0","33t4bhb7413j",NA,"Organ Ezol fails.","Zimob","fails",6445,2,"fails","Ezol",NA,NA,"3",11,FALSE,NA,TRUE,0,0.5,"bacteria3"
"fox","Felac,Titho,Gena,Ubug,Eefar,Hoap","analogues","hebb",14,667437,"0.0-4.0-10.0","33t4bhb7413j",NA,"Fox Felac digs tunnel Titho.","Felac","is devoured",28953,3,"digs","Felac","Titho","Titho","1",12,TRUE,TRUE,FALSE,0,0.666666666666667,"fox1"
"fox","Felac,Titho,Gena,Ubug,Eefar,Hoap","analogues","hebb",14,667437,"0.0-4.0-10.0","33t4bhb7413j",NA,"Tunnel Titho leads to coop of chicken Gena.","Gena","digs",16444,4,"leads to sth. of","Titho","Eefar","Gena","2",12,FALSE,FALSE,FALSE,0,0,"fox2"
"fox","Felac,Titho,Gena,Ubug,Eefar,Hoap","analogues","hebb",14,667437,"0.0-4.0-10.0","33t4bhb7413j",NA,"Chicken Gena is devoured.","Titho","is eaten",10783,2,"is devoured","Gena",NA,NA,"3",12,FALSE,NA,FALSE,0,0,"fox3"
"fish","Ahow,Pide,Niem,Upum,Lothe,Zidep","burns","hebb",16,733330,"0.0-4.0-12.0","33t4bhb7413j",NA,"Fisher Ahow cultivates sea grass Pide.","Zidep","cultivates",16514,4,"cultivates","Ahow","Lothe","Pide","1",14,FALSE,FALSE,TRUE,0,0.333333333333333,"fish1"
"fish","Ahow,Pide,Niem,Upum,Lothe,Zidep","burns","hebb",16,733330,"0.0-4.0-12.0","33t4bhb7413j",NA,"Sea grass Pide is eaten by fish Niem.","Lothe","is taken",9751,3,"is eaten by","Pide","Upum","Niem","2",14,FALSE,FALSE,FALSE,0,0,"fish2"
"fish","Ahow,Pide,Niem,Upum,Lothe,Zidep","burns","hebb",16,733330,"0.0-4.0-12.0","33t4bhb7413j",NA,"Fish Niem is captured.","Ahow","is digested",14836,2,"is captured","Niem",NA,NA,"3",14,FALSE,NA,FALSE,0,0,"fish3"
"pump","Upel,Pishi,Inag,Vipal,Fozeh,Saly","fillers","hebb",17,777736,"0.0-4.0-13.0","33t4bhb7413j",NA,"Plumber Upel installs pump Pishi.","Fozeh","soakes up",15473,3,"installs","Upel","Pishi","Pishi","1",15,FALSE,TRUE,FALSE,0,0.333333333333333,"pump1"
"pump","Upel,Pishi,Inag,Vipal,Fozeh,Saly","fillers","hebb",17,777736,"0.0-4.0-13.0","33t4bhb7413j",NA,"Pump Pishi sucks water from ground Inag.","Pishi","fixes",12454,4,"sucks sth. from","Pishi","Upel","Inag","2",15,TRUE,FALSE,FALSE,0,0.333333333333333,"pump2"
"pump","Upel,Pishi,Inag,Vipal,Fozeh,Saly","fillers","hebb",17,777736,"0.0-4.0-13.0","33t4bhb7413j",NA,"Ground Inag dries up.","Upel","dries up",5975,2,"dries up","Inag",NA,NA,"3",15,FALSE,NA,TRUE,0,0.5,"pump3"
"storm","Mewep,Dugoz,Ilres,Rove,Dohod,Romap","fillers","hebb",18,814895,"0.0-4.0-14.0","33t4bhb7413j",NA,"Storm Mewep hits tree Dugoz.","Mewep","is thrown on",12053,3,"hits","Mewep","Dohod","Dugoz","1",16,TRUE,FALSE,FALSE,0,0.333333333333333,"storm1"
"storm","Mewep,Dugoz,Ilres,Rove,Dohod,Romap","fillers","hebb",18,814895,"0.0-4.0-14.0","33t4bhb7413j",NA,"Tree Dugoz falls on trail of route Ilres.","Dohod","blows off",7413,3,"falls on","Dugoz","Romap","Ilres","2",16,FALSE,FALSE,FALSE,0,0,"storm2"
"storm","Mewep,Dugoz,Ilres,Rove,Dohod,Romap","fillers","hebb",18,814895,"0.0-4.0-14.0","33t4bhb7413j",NA,"Route Ilres is blocked.","Rove","is ruined",7188,2,"is blocked","Ilres",NA,NA,"3",16,FALSE,NA,FALSE,0,0,"storm3"
"hacker","Uvman,Rothuk,Gelyp,Potho,Vivaf,Avyth","analogues","hebb",19,861152,"0.0-4.0-15.0","33t4bhb7413j",NA,"Hacker Uvman wrote computer code Rothuk.","Avyth","catches sth. of",19334,3,"wrote","Uvman","Rothuk","Rothuk","1",17,FALSE,TRUE,FALSE,0,0.333333333333333,"hacker1"
"hacker","Uvman,Rothuk,Gelyp,Potho,Vivaf,Avyth","analogues","hebb",19,861152,"0.0-4.0-15.0","33t4bhb7413j",NA,"Code Rothuk cracks the firewall of company Gelyp.","Rothuk","cracks sth. of",8226,3,"cracks sth. of","Rothuk","Vivaf","Gelyp","2",17,TRUE,FALSE,TRUE,0,0.666666666666667,"hacker2"
"hacker","Uvman,Rothuk,Gelyp,Potho,Vivaf,Avyth","analogues","hebb",19,861152,"0.0-4.0-15.0","33t4bhb7413j",NA,"Company Gelyp suffers a data loss.","Vivaf","suffers sth.",8193,2,"suffers sth.","Gelyp",NA,NA,"3",17,FALSE,NA,TRUE,0,0.5,"hacker3"
"lawyer","Ebib,Yuxeh,Lyde,Ofes,Paza,Hadith","analogues","hebb",20,904472,"0.0-4.0-16.0","33t4bhb7413j",NA,"Lawyer Ebib finds loophole Yuxeh.","Lyde","detects",13416,4,"finds","Ebib","Ebib","Yuxeh","1",18,FALSE,FALSE,FALSE,0,0,"lawyer1"
"lawyer","Ebib,Yuxeh,Lyde,Ofes,Paza,Hadith","analogues","hebb",20,904472,"0.0-4.0-16.0","33t4bhb7413j",NA,"Loophole Yuxeh bypasses contract of union Lyde.","Lyde","overrides sth. of",13297,3,"bypasses sth. of","Yuxeh","Yuxeh","Lyde","2",18,FALSE,FALSE,FALSE,0,0,"lawyer2"
"lawyer","Ebib,Yuxeh,Lyde,Ofes,Paza,Hadith","analogues","hebb",20,904472,"0.0-4.0-16.0","33t4bhb7413j",NA,"Union Lyde loses a lawsuit.","Yuxeh","loses sth.",6103,2,"loses sth.","Lyde",NA,NA,"3",18,FALSE,NA,TRUE,0,0.5,"lawyer3"
"school","Evib,Thyra,Fozeh,Hadith,Mewep,Upel","burns","hebb",4,220014,"0.0-4.0-0.0","368a2blg10yo",NA,"School girl Evib beats boy Thyra.","Thyra","beats",18658,3,"beats","Evib","Fozeh","Thyra","1",2,FALSE,FALSE,TRUE,0,0.333333333333333,"school1"
"school","Evib,Thyra,Fozeh,Hadith,Mewep,Upel","burns","hebb",4,220014,"0.0-4.0-0.0","368a2blg10yo",NA,"Boy Thyra reports to teacher Fozeh.","Fozeh","goes to",29180,4,"reports to","Thyra","Mewep","Fozeh","2",2,FALSE,FALSE,FALSE,0,0,"school2"
"school","Evib,Thyra,Fozeh,Hadith,Mewep,Upel","burns","hebb",4,220014,"0.0-4.0-0.0","368a2blg10yo",NA,"Teacher Fozeh calls parents.","Evib","calls parents",8552,2,"calls parents","Fozeh",NA,NA,"3",2,FALSE,NA,TRUE,0,0.5,"school3"
"meteo","Afik,Thuha,Felac,Ebib,Wecin,Newi","burns","hebb",5,412205,"0.0-4.0-1.0","368a2blg10yo",NA,"Cloud Afik collects humidity over ocean Thuha.","Afik","is contained in",17034,3,"collects humidity over","Afik","Felac","Thuha","1",3,TRUE,FALSE,FALSE,0,0.333333333333333,"meteo1"
"meteo","Afik,Thuha,Felac,Ebib,Wecin,Newi","burns","hebb",5,412205,"0.0-4.0-1.0","368a2blg10yo",NA,"Ocean Thuha lies next to the beaches of area Felac.","Felac","lies above",14459,3,"lies next to","Thuha","Thuha","Felac","2",3,FALSE,FALSE,FALSE,0,0,"meteo2"
"meteo","Afik,Thuha,Felac,Ebib,Wecin,Newi","burns","hebb",5,412205,"0.0-4.0-1.0","368a2blg10yo",NA,"Area Felac is fertile.","Thuha","is fertile",150192,2,"is fertile","Felac",NA,NA,"3",3,FALSE,NA,TRUE,0,0.5,"meteo3"
"insect","Dohod,Assit,Reok,Wehif,Uyim,Thygef","burns","hebb",6,480204,"0.0-4.0-2.0","368a2blg10yo",NA,"Perfume Dohod attracts insect Assit.","Dohod","approaches",24396,3,"attracts","Dohod","Assit","Assit","1",4,TRUE,TRUE,FALSE,0,0.666666666666667,"insect1"
"insect","Dohod,Assit,Reok,Wehif,Uyim,Thygef","burns","hebb",6,480204,"0.0-4.0-2.0","368a2blg10yo",NA,"Insect Assit attacks woman Reok.","Assit","smells",26683,7,"attacks","Assit","Wehif","Reok","2",4,TRUE,FALSE,FALSE,0,0.333333333333333,"insect2"
"insect","Dohod,Assit,Reok,Wehif,Uyim,Thygef","burns","hebb",6,480204,"0.0-4.0-2.0","368a2blg10yo",NA,"Woman Reok has an allergic reaction.","Wehif","has an allergic reaction",6416,3,"has an allergic reaction","Reok",NA,NA,"3",4,FALSE,NA,TRUE,0,0.5,"insect3"
"robber","Orok,Mabi,Olef,Epnux,Zugew,Romap","analogues","hebb",7,523111,"0.0-4.0-3.0","368a2blg10yo",NA,"Criminal Orok learns about security issue Mabi.","Orok","learns about",11629,4,"learns about","Orok","Mabi","Mabi","1",5,TRUE,TRUE,TRUE,0,1,"robber1"
"robber","Orok,Mabi,Olef,Epnux,Zugew,Romap","analogues","hebb",7,523111,"0.0-4.0-3.0","368a2blg10yo",NA,"Security issue Mabi suspends alarm system of museum Olef.","Mabi","finds out about",16280,4,"suspends sth. of","Mabi","Olef","Olef","2",5,TRUE,TRUE,FALSE,0,0.666666666666667,"robber2"
"robber","Orok,Mabi,Olef,Epnux,Zugew,Romap","analogues","hebb",7,523111,"0.0-4.0-3.0","368a2blg10yo",NA,"Museum Olef gets robbed.","Olef","gets robbed",4493,2,"gets robbed","Olef",NA,NA,"3",5,TRUE,NA,TRUE,0,1,"robber3"
"hacker","Ofpoz,Igoth,Ofes,Paza,Gelyp,Ribi","analogues","hebb",8,586602,"0.0-4.0-4.0","368a2blg10yo",NA,"Hacker Ofpoz writes computer code Igoth.","Ofpoz","penetrates sth. of",27289,4,"writes","Ofpoz","Paza","Igoth","1",6,TRUE,FALSE,FALSE,0,0.333333333333333,"hacker1"
"hacker","Ofpoz,Igoth,Ofes,Paza,Gelyp,Ribi","analogues","hebb",8,586602,"0.0-4.0-4.0","368a2blg10yo",NA,"Code Igoth cracks the firewall of company Ofes.","Paza","catches sth. of",8523,3,"cracks sth. of","Igoth","Ofes","Ofes","2",6,FALSE,TRUE,FALSE,0,0.333333333333333,"hacker2"
"hacker","Ofpoz,Igoth,Ofes,Paza,Gelyp,Ribi","analogues","hebb",8,586602,"0.0-4.0-4.0","368a2blg10yo",NA,"Company Ofes suffers a data loss.","Ofes","suffers sth.",17175,3,"suffers sth.","Ofes",NA,NA,"3",6,TRUE,NA,TRUE,0,1,"hacker3"
"pump","Vivaf,Niem,Zishu,Olag,Ena,Goxos","fillers","hebb",9,645256,"0.0-4.0-5.0","368a2blg10yo",NA,"Plumber Vivaf installs pump Niem.","Vivaf","installs",30557,7,"installs","Vivaf","Niem","Niem","1",7,TRUE,TRUE,TRUE,0,1,"pump1"
"pump","Vivaf,Niem,Zishu,Olag,Ena,Goxos","fillers","hebb",9,645256,"0.0-4.0-5.0","368a2blg10yo",NA,"Pump Niem sucks water from ground Zishu.","Niem","soakes up",12159,3,"sucks sth. from","Niem","Zishu","Zishu","2",7,TRUE,TRUE,FALSE,0,0.666666666666667,"pump2"
"pump","Vivaf,Niem,Zishu,Olag,Ena,Goxos","fillers","hebb",9,645256,"0.0-4.0-5.0","368a2blg10yo",NA,"Ground Zishu dries up.","Niem","dries up",5433,2,"dries up","Zishu",NA,NA,"3",7,FALSE,NA,TRUE,0,0.5,"pump3"
"farm","Roze,Ihab,Eefar,Ahow,Gabit,Ilres","fillers","hebb",10,698337,"0.0-4.0-6.0","368a2blg10yo",NA,"Farmer Roze purchases machine Ihab.","Roze","purchases",14314,3,"purchases","Roze","Eefar","Ihab","1",8,TRUE,FALSE,TRUE,0,0.666666666666667,"farm1"
"farm","Roze,Ihab,Eefar,Ahow,Gabit,Ilres","fillers","hebb",10,698337,"0.0-4.0-6.0","368a2blg10yo",NA,"Machine Ihab can collect fruit of plant Eefar.","Eefar","can collect",21350,4,"can collect","Ihab","Ihab","Eefar","2",8,FALSE,FALSE,TRUE,0,0.333333333333333,"farm2"
"farm","Roze,Ihab,Eefar,Ahow,Gabit,Ilres","fillers","hebb",10,698337,"0.0-4.0-6.0","368a2blg10yo",NA,"Plant Eefar are harvested automatically.","Ihab","are reaped mechanically",6912,2,"are harvested automatically","Eefar",NA,NA,"3",8,FALSE,NA,FALSE,0,0,"farm3"
"fox","Aid,Huluw,Rove,Upum,Lyde,Matmag","analogues","hebb",11,746638,"0.0-4.0-7.0","368a2blg10yo",NA,"Fox Aid digs tunnel Huluw.","Aid","digs",16840,3,"digs","Aid","Rove","Huluw","1",9,TRUE,FALSE,TRUE,0,0.666666666666667,"fox1"
"fox","Aid,Huluw,Rove,Upum,Lyde,Matmag","analogues","hebb",11,746638,"0.0-4.0-7.0","368a2blg10yo",NA,"Tunnel Huluw leads to coop of chicken Rove.","Huluw","gets to sth. of",15620,4,"leads to sth. of","Huluw","Rove","Rove","2",9,TRUE,TRUE,FALSE,0,0.666666666666667,"fox2"
"fox","Aid,Huluw,Rove,Upum,Lyde,Matmag","analogues","hebb",11,746638,"0.0-4.0-7.0","368a2blg10yo",NA,"Chicken Rove is devoured.","Huluw","is devoured",5336,2,"is devoured","Rove",NA,NA,"3",9,FALSE,NA,TRUE,0,0.5,"fox3"
"crusader","Uvman,Rivo,Awiz,Ottha,Itbob,Ubug","analogues","hebb",12,783795,"0.0-4.0-8.0","368a2blg10yo",NA,"Crusader group Uvman buys weapon Rivo.","Rivo","buys",11811,4,"buys","Uvman","Uvman","Rivo","1",10,FALSE,FALSE,TRUE,0,0.333333333333333,"crusader1"
"crusader","Uvman,Rivo,Awiz,Ottha,Itbob,Ubug","analogues","hebb",12,783795,"0.0-4.0-8.0","368a2blg10yo",NA,"Weapon Rivo breaches the fortification of town Awiz.","Rivo","breaches sth. of",8226,3,"breaches sth. of","Rivo","Awiz","Awiz","2",10,TRUE,TRUE,TRUE,0,1,"crusader2"
"crusader","Uvman,Rivo,Awiz,Ottha,Itbob,Ubug","analogues","hebb",12,783795,"0.0-4.0-8.0","368a2blg10yo",NA,"Town Awiz is invaded.","Awiz","is invaded",6614,4,"is invaded","Awiz",NA,NA,"3",10,TRUE,NA,TRUE,0,1,"crusader3"
"employee","Gena,Thusoth,Lothe,Eshbu,Rothuk,Turow","fillers","hebb",13,828374,"0.0-4.0-9.0","368a2blg10yo",NA,"Employee Gena is assigned to project Thusoth.","Gena","is assigned to",19235,4,"is assigned to","Gena","Thusoth","Thusoth","1",11,TRUE,TRUE,TRUE,0,1,"employee1"
"employee","Gena,Thusoth,Lothe,Eshbu,Rothuk,Turow","fillers","hebb",13,828374,"0.0-4.0-9.0","368a2blg10yo",NA,"Project Thusoth supports agenda of manager Lothe.","Thusoth","is arranged to",10994,3,"supports sth. of","Thusoth","Rothuk","Lothe","2",11,TRUE,FALSE,FALSE,0,0.333333333333333,"employee2"
"employee","Gena,Thusoth,Lothe,Eshbu,Rothuk,Turow","fillers","hebb",13,828374,"0.0-4.0-9.0","368a2blg10yo",NA,"Manager Lothe gets a promotion.","Rothuk","gets a promotion",3848,2,"gets a promotion","Lothe",NA,NA,"3",11,FALSE,NA,TRUE,0,0.5,"employee3"
"neighbor","Ezol,Yoges,Zimob,Kewos,Potho,Hize","fillers","hebb",14,866162,"0.0-4.0-10.0","368a2blg10yo",NA,"Man Ezol takes care of cat Yoges.","Ezol","takes care of",13614,3,"takes care of","Ezol","Yoges","Yoges","1",12,TRUE,TRUE,TRUE,0,1,"neighbor1"
"neighbor","Ezol,Yoges,Zimob,Kewos,Potho,Hize","fillers","hebb",14,866162,"0.0-4.0-10.0","368a2blg10yo",NA,"Cat Yoges walks over the flowers of neighbor Zimob","Yoges","is feeding",8536,4,"walks over sth. of","Yoges","Zimob","Zimob","2",12,TRUE,TRUE,FALSE,0,0.666666666666667,"neighbor2"
"neighbor","Ezol,Yoges,Zimob,Kewos,Potho,Hize","fillers","hebb",14,866162,"0.0-4.0-10.0","368a2blg10yo",NA,"Neighbor Zimob gets angry.","Zimob","gets angry",5133,3,"gets angry","Zimob",NA,NA,"3",12,TRUE,NA,TRUE,0,1,"neighbor3"
"fish","Enmob,Ifeh,Mawi,Yuxeh,Pide,Hoyl","burns","hebb",16,915099,"0.0-4.0-12.0","368a2blg10yo",NA,"Fisher Enmob cultivates sea grass Ifeh.","Enmob","cultivates",8827,3,"cultivates","Enmob","Ifeh","Ifeh","1",14,TRUE,TRUE,TRUE,0,1,"fish1"
"fish","Enmob,Ifeh,Mawi,Yuxeh,Pide,Hoyl","burns","hebb",16,915099,"0.0-4.0-12.0","368a2blg10yo",NA,"Sea grass Ifeh is eaten by fish Mawi.","Enmob","is captured",12030,4,"is eaten by","Ifeh","Mawi","Mawi","2",14,FALSE,TRUE,FALSE,0,0.333333333333333,"fish2"
"fish","Enmob,Ifeh,Mawi,Yuxeh,Pide,Hoyl","burns","hebb",16,915099,"0.0-4.0-12.0","368a2blg10yo",NA,"Fish Mawi is captured.","Mawi","is digested",6941,2,"is captured","Mawi",NA,NA,"3",14,TRUE,NA,FALSE,0,0.5,"fish3"
"bacteria","Soav,Uwit,Molash,Owmi,Napib,Hosen","analogues","hebb",17,971469,"0.0-4.0-13.0","368a2blg10yo",NA,"Bacteria Soav emits enzyme Uwit.","Soav","emits",26759,6,"emits","Soav","Uwit","Uwit","1",15,TRUE,TRUE,TRUE,0,1,"bacteria1"
"bacteria","Soav,Uwit,Molash,Owmi,Napib,Hosen","analogues","hebb",17,971469,"0.0-4.0-13.0","368a2blg10yo",NA,"Enzyme Uwit dissolves the membrane of organ Molash.","Uwit","dissolves sth. of",10635,3,"dissolves sth. of","Uwit","Molash","Molash","2",15,TRUE,TRUE,TRUE,0,1,"bacteria2"
"bacteria","Soav,Uwit,Molash,Owmi,Napib,Hosen","analogues","hebb",17,971469,"0.0-4.0-13.0","368a2blg10yo",NA,"Organ Molash fails.","Molash","dies",8470,3,"fails","Molash",NA,NA,"3",15,TRUE,NA,FALSE,0,0.5,"bacteria3"
"lawyer","Thisun,Vuloz,Pobat,Meuf,Hoap,Ohuy","analogues","hebb",18,1018750,"0.0-4.0-14.0","368a2blg10yo",NA,"Lawyer Thisun finds loophole Vuloz.","Hoap","finds",18579,5,"finds","Thisun","Pobat","Vuloz","1",16,FALSE,FALSE,TRUE,0,0.333333333333333,"lawyer1"
"lawyer","Thisun,Vuloz,Pobat,Meuf,Hoap,Ohuy","analogues","hebb",18,1018750,"0.0-4.0-14.0","368a2blg10yo",NA,"Loophole Vuloz bypasses contract of union Pobat.","Vuloz","bypasses sth. of",11815,4,"bypasses sth. of","Vuloz","Pobat","Pobat","2",16,TRUE,TRUE,TRUE,0,1,"lawyer2"
"lawyer","Thisun,Vuloz,Pobat,Meuf,Hoap,Ohuy","analogues","hebb",18,1018750,"0.0-4.0-14.0","368a2blg10yo",NA,"Union Pobat loses a lawsuit.","Pobat","loses sth.",6382,2,"loses sth.","Pobat",NA,NA,"3",16,TRUE,NA,TRUE,0,1,"lawyer3"
"storm","Owih,Kesal,Uhuy,Adjo,Puvi,Ewey","fillers","hebb",19,1077643,"0.0-4.0-15.0","368a2blg10yo",NA,"Storm Owih hits tree Kesal.","Ewey","blows off",36767,6,"hits","Owih","Uhuy","Kesal","1",17,FALSE,FALSE,FALSE,0,0,"storm1"
"storm","Owih,Kesal,Uhuy,Adjo,Puvi,Ewey","fillers","hebb",19,1077643,"0.0-4.0-15.0","368a2blg10yo",NA,"Tree Kesal falls on trail of route Uhuy.","Uhuy","falls on",6796,3,"falls on","Kesal","Kesal","Uhuy","2",17,FALSE,FALSE,TRUE,0,0.333333333333333,"storm2"
"storm","Owih,Kesal,Uhuy,Adjo,Puvi,Ewey","fillers","hebb",19,1077643,"0.0-4.0-15.0","368a2blg10yo",NA,"Route Uhuy is blocked.","Kesal","is ruined",4825,2,"is blocked","Uhuy",NA,NA,"3",17,FALSE,NA,FALSE,0,0,"storm3"
"mining","Avyth,Dugoz,Idog,Ohan,Kawud,Upno","fillers","hebb",20,1111141,"0.0-4.0-16.0","368a2blg10yo",NA,"Mining company Avyth has a lot of resource Dugoz.","Avyth","has a lot of",9140,3,"has a lot of","Avyth","Dugoz","Dugoz","1",18,TRUE,TRUE,TRUE,0,1,"mining1"
"mining","Avyth,Dugoz,Idog,Ohan,Kawud,Upno","fillers","hebb",20,1111141,"0.0-4.0-16.0","368a2blg10yo",NA,"Resource Dugoz is sparse in country Idog.","Dugoz","is sparse in",9977,3,"is sparse in","Dugoz","Idog","Idog","2",18,TRUE,TRUE,TRUE,0,1,"mining2"
"mining","Avyth,Dugoz,Idog,Ohan,Kawud,Upno","fillers","hebb",20,1111141,"0.0-4.0-16.0","368a2blg10yo",NA,"Country Idog starts negotiating.","Idog","starts negotiating",3877,2,"starts negotiating","Idog",NA,NA,"3",18,TRUE,NA,TRUE,0,1,"mining3"
"school","Kewos,Gabit,Ribi,Wutoc,Aid,Rothuk","burns","hebb",4,73778,"0.0-4.0-0.0","3uxcgpu3626q",NA,"School girl Kewos beats boy Gabit.","Kewos","beats",15958,3,"beats","Kewos","Gabit","Gabit","1",2,TRUE,TRUE,TRUE,0,1,"school1"
"school","Kewos,Gabit,Ribi,Wutoc,Aid,Rothuk","burns","hebb",4,73778,"0.0-4.0-0.0","3uxcgpu3626q",NA,"Boy Gabit reports to teacher Ribi.","Gabit","reports to",8119,3,"reports to","Gabit","Ribi","Ribi","2",2,TRUE,TRUE,TRUE,0,1,"school2"
"school","Kewos,Gabit,Ribi,Wutoc,Aid,Rothuk","burns","hebb",4,73778,"0.0-4.0-0.0","3uxcgpu3626q",NA,"Teacher Ribi calls parents.","Ribi","calls parents",9288,2,"calls parents","Ribi",NA,NA,"3",2,TRUE,NA,TRUE,0,1,"school3"
"fish","Kesal,Paza,Assit,Mewep,Yoges,Hosen","burns","hebb",5,115514,"0.0-4.0-1.0","3uxcgpu3626q",NA,"Fisher Kesal cultivates sea grass Paza.","Kesal","cultivates",11686,3,"cultivates","Kesal","Paza","Paza","1",3,TRUE,TRUE,TRUE,0,1,"fish1"
"fish","Kesal,Paza,Assit,Mewep,Yoges,Hosen","burns","hebb",5,115514,"0.0-4.0-1.0","3uxcgpu3626q",NA,"Sea grass Paza is eaten by fish Assit.","Paza","is eaten by",10712,4,"is eaten by","Paza","Assit","Assit","2",3,TRUE,TRUE,TRUE,0,1,"fish2"
"fish","Kesal,Paza,Assit,Mewep,Yoges,Hosen","burns","hebb",5,115514,"0.0-4.0-1.0","3uxcgpu3626q",NA,"Fish Assit is captured.","Assit","is captured",8831,2,"is captured","Assit",NA,NA,"3",3,TRUE,NA,TRUE,0,1,"fish3"
"insect","Eshov,Lothe,Owih,Olef,Puvi,Owmi","burns","hebb",6,163147,"0.0-4.0-2.0","3uxcgpu3626q",NA,"Perfume Eshov attracts insect Lothe.","Eshov","attracts",16070,3,"attracts","Eshov","Owmi","Lothe","1",4,TRUE,FALSE,TRUE,0,0.666666666666667,"insect1"
"insect","Eshov,Lothe,Owih,Olef,Puvi,Owmi","burns","hebb",6,163147,"0.0-4.0-2.0","3uxcgpu3626q",NA,"Insect Lothe attacks woman Owih.","Owmi","attacks",12217,5,"attacks","Lothe","Olef","Owih","2",4,FALSE,FALSE,TRUE,0,0.333333333333333,"insect2"
"insect","Eshov,Lothe,Owih,Olef,Puvi,Owmi","burns","hebb",6,163147,"0.0-4.0-2.0","3uxcgpu3626q",NA,"Woman Owih has an allergic reaction.","Olef","has an allergic reaction",8839,2,"has an allergic reaction","Owih",NA,NA,"3",4,FALSE,NA,TRUE,0,0.5,"insect3"
"storm","Dohod,Saly,Romap,Misug,Zishu,Mawi","fillers","hebb",7,202298,"0.0-4.0-3.0","3uxcgpu3626q",NA,"Storm Dohod hits tree Saly.","Dohod","hits",11934,3,"hits","Dohod","Saly","Saly","1",5,TRUE,TRUE,TRUE,0,1,"storm1"
"storm","Dohod,Saly,Romap,Misug,Zishu,Mawi","fillers","hebb",7,202298,"0.0-4.0-3.0","3uxcgpu3626q",NA,"Tree Saly falls on trail of route Romap.","Saly","falls on",8720,3,"falls on","Saly","Romap","Romap","2",5,TRUE,TRUE,TRUE,0,1,"storm2"
"storm","Dohod,Saly,Romap,Misug,Zishu,Mawi","fillers","hebb",7,202298,"0.0-4.0-3.0","3uxcgpu3626q",NA,"Route Romap is blocked.","Romap","is blocked",7992,2,"is blocked","Romap",NA,NA,"3",5,TRUE,NA,TRUE,0,1,"storm3"
"farm","Thuha,Pishi,Ewey,Ubug,Ebib,Orok","fillers","hebb",8,241819,"0.0-4.0-4.0","3uxcgpu3626q",NA,"Farmer Thuha purchases machine Pishi.","Thuha","can compose",12688,3,"purchases","Thuha","Pishi","Pishi","1",6,TRUE,TRUE,FALSE,0,0.666666666666667,"farm1"
"farm","Thuha,Pishi,Ewey,Ubug,Ebib,Orok","fillers","hebb",8,241819,"0.0-4.0-4.0","3uxcgpu3626q",NA,"Machine Pishi can collect fruit of plant Ewey.","Pishi","can collect",7792,3,"can collect","Pishi","Ewey","Ewey","2",6,TRUE,TRUE,TRUE,0,1,"farm2"
"farm","Thuha,Pishi,Ewey,Ubug,Ebib,Orok","fillers","hebb",8,241819,"0.0-4.0-4.0","3uxcgpu3626q",NA,"Plant Ewey are harvested automatically.","Ewey","are harvested automatically",8536,2,"are harvested automatically","Ewey",NA,NA,"3",6,TRUE,NA,TRUE,0,1,"farm3"
"hacker","Uvman,Roze,Goxos,Zimob,Ohan,Upel","analogues","hebb",9,290323,"0.0-4.0-5.0","3uxcgpu3626q",NA,"Hacker Uvman writes computer code Roze.","Uvman","writes",15992,3,"writes","Uvman","Roze","Roze","1",7,TRUE,TRUE,TRUE,0,1,"hacker1"
"hacker","Uvman,Roze,Goxos,Zimob,Ohan,Upel","analogues","hebb",9,290323,"0.0-4.0-5.0","3uxcgpu3626q",NA,"Code Roze cracks the firewall of company Goxos.","Roze","cracks sth. of",10912,3,"cracks sth. of","Roze","Goxos","Goxos","2",7,TRUE,TRUE,TRUE,0,1,"hacker2"
"hacker","Uvman,Roze,Goxos,Zimob,Ohan,Upel","analogues","hebb",9,290323,"0.0-4.0-5.0","3uxcgpu3626q",NA,"Company Goxos suffers a data loss.","Goxos","suffers sth.",11096,2,"suffers sth.","Goxos",NA,NA,"3",7,TRUE,NA,TRUE,0,1,"hacker3"
"fox","Olag,Zidep,Reok,Thyra,Pide,Newi","analogues","hebb",10,332307,"0.0-4.0-6.0","3uxcgpu3626q",NA,"Fox Olag digs tunnel Zidep.","Pide","digs",11223,3,"digs","Olag","Zidep","Zidep","1",8,FALSE,TRUE,TRUE,0,0.666666666666667,"fox1"
"fox","Olag,Zidep,Reok,Thyra,Pide,Newi","analogues","hebb",10,332307,"0.0-4.0-6.0","3uxcgpu3626q",NA,"Tunnel Zidep leads to coop of chicken Reok.","Zidep","digs",11608,3,"leads to sth. of","Zidep","Reok","Reok","2",8,TRUE,TRUE,FALSE,0,0.666666666666667,"fox2"
