"","title","names","trial_type","trial_index","time_elapsed","internal_node_id","sessionCode","timeReading","fullStat","name1","relation","timeDrag","ndrags","rel_sol","name1_sol","name2","name2_sol","statIdx","stoIdx","name1_cor","name2_cor","rel_cor","condition","first","overall_cor","NFC","FI","timeReadingLog","timeDragLog","uniqueStatement","relError","name1_error","name2_error","dayblock","date","design","stoIdx2"
"1","hacker","Dohod,Ottha,Ihab,Ebib,Mewep,Epnux","hebb",3,94072,"0.0-3.0-0.0","02rglerjcqzf",3099,"Hacker Dohod wrote computer code Ottha.","Dohod","cracks sth. of",10738,3,"wrote","Dohod","Ottha","Ottha","1",1,TRUE,TRUE,FALSE,"analog",1,0.666666666666667,17,4,8.03915739047324,9.28163725385822,"hacker1","order","none","none","morning","2016-05-03",0,1
"2","hacker","Dohod,Ottha,Ihab,Ebib,Mewep,Epnux","hebb",3,94072,"0.0-3.0-0.0","02rglerjcqzf",2250,"Code Ottha cracks the firewall of company Ihab.","Ottha","penetrates sth. of",14831,3,"cracks sth. of","Ottha","Ihab","Ihab","2",1,TRUE,TRUE,FALSE,"analog",1,0.666666666666667,17,4,7.71912984090673,9.60454228780564,"hacker2","syno","none","none","morning","2016-05-03",0,1
"3","hacker","Dohod,Ottha,Ihab,Ebib,Mewep,Epnux","hebb",3,94072,"0.0-3.0-0.0","02rglerjcqzf",1033,"Company Ihab suffers a data loss.","Ihab","suffers sth.",13671,3,"suffers sth.","Ihab",NA,NA,"3",1,TRUE,NA,TRUE,"analog",1,1,17,4,6.94119005506837,9.52310522479543,"hacker3","none","none",NA,"morning","2016-05-03",0,1
"21","insect","Meuf,Saly,Ilres,Wehif,Afi,Kawud","hebb",4,126208,"0.0-3.0-1.0","02rglerjcqzf",4769,"Perfume Meuf attracts insect Saly.","Meuf","attracts",8724,3,"attracts","Meuf","Saly","Saly","1",2,TRUE,TRUE,TRUE,"filler",0,1,17,4,8.47010158388239,9.07394774707063,"insect1","none","none","none","morning","2016-05-03",0,1
"22","insect","Meuf,Saly,Ilres,Wehif,Afi,Kawud","hebb",4,126208,"0.0-3.0-1.0","02rglerjcqzf",2089,"Insect Saly attacks woman Ilres.","Saly","attacks",7864,3,"attacks","Saly","Ilres","Ilres","2",2,TRUE,TRUE,TRUE,"filler",0,1,17,4,7.64491934495886,8.97017781549238,"insect2","none","none","none","morning","2016-05-03",0,1
"23","insect","Meuf,Saly,Ilres,Wehif,Afi,Kawud","hebb",4,126208,"0.0-3.0-1.0","02rglerjcqzf",1388,"Woman Ilres has an allergic reaction.","Ilres","has an allergic reaction",5800,2,"has an allergic reaction","Ilres",NA,NA,"3",2,TRUE,NA,TRUE,"filler",0,1,17,4,7.23633934275434,8.66578559546606,"insect3","none","none",NA,"morning","2016-05-03",0,1
"31","fox","Pishi,Avyth,Hoyl,Ribi,Wecin,Erok","hebb",5,164097,"0.0-3.0-2.0","02rglerjcqzf",5351,"Fox Pishi digs tunnel Avyth.","Pishi","digs",9875,3,"digs","Pishi","Avyth","Avyth","1",3,TRUE,TRUE,TRUE,"analog",0,1,17,4,8.58522560180806,9.19786285046507,"fox1","none","none","none","morning","2016-05-03",0,2
"32","fox","Pishi,Avyth,Hoyl,Ribi,Wecin,Erok","hebb",5,164097,"0.0-3.0-2.0","02rglerjcqzf",6623,"Tunnel Avyth leads to coop of chicken Hoyl.","Avyth","leads to sth. of",8329,3,"leads to sth. of","Avyth","Hoyl","Hoyl","2",3,TRUE,TRUE,TRUE,"analog",0,1,17,4,8.79845469606509,9.02761873516089,"fox2","none","none","none","morning","2016-05-03",0,2
"33","fox","Pishi,Avyth,Hoyl,Ribi,Wecin,Erok","hebb",5,164097,"0.0-3.0-2.0","02rglerjcqzf",991,"Chicken Hoyl is devoured.","Hoyl","is devoured",5216,2,"is devoured","Hoyl",NA,NA,"3",3,TRUE,NA,TRUE,"analog",0,1,17,4,6.89972310728487,8.55967780302239,"fox3","none","none",NA,"morning","2016-05-03",0,2
"4","farm","Goxos,Orok,Hadith,Mabi,Gena,Napib","hebb",6,205481,"0.0-3.0-3.0","02rglerjcqzf",6263,"Farmer Goxos bought machine Orok.","Goxos","bought",9521,3,"bought","Goxos","Orok","Orok","1",4,TRUE,TRUE,TRUE,"filler",0,1,17,4,8.74257423767064,9.16136018975446,"farm1","none","none","none","morning","2016-05-03",0,2
"41","farm","Goxos,Orok,Hadith,Mabi,Gena,Napib","hebb",6,205481,"0.0-3.0-3.0","02rglerjcqzf",7113,"Machine Orok can collect fruit of plant Hadith.","Orok","can collect",10520,3,"can collect","Orok","Hadith","Hadith","2",4,TRUE,TRUE,TRUE,"filler",0,1,17,4,8.8698199525084,9.26112853880829,"farm2","none","none","none","morning","2016-05-03",0,2
"42","farm","Goxos,Orok,Hadith,Mabi,Gena,Napib","hebb",6,205481,"0.0-3.0-3.0","02rglerjcqzf",665,"Plant Hadith are harvested automatically.","Hadith","are harvested automatically",5800,2,"are harvested automatically","Hadith",NA,NA,"3",4,TRUE,NA,TRUE,"filler",0,1,17,4,6.50128967054039,8.66578559546606,"farm3","none","none",NA,"morning","2016-05-03",0,2
"5","bacteria","Uhuy,Evib,Igoth,Aid,Eshov,Mawi","hebb",7,246544,"0.0-3.0-4.0","02rglerjcqzf",2456,"Bacteria Uhuy emits enzyme Evib.","Uhuy","emits",12193,3,"emits","Uhuy","Eshov","Evib","1",5,TRUE,FALSE,TRUE,"analog",0,0.666666666666667,17,4,7.80669637252118,9.40869930646776,"bacteria1","none","none","other","morning","2016-05-03",0,3
"51","bacteria","Uhuy,Evib,Igoth,Aid,Eshov,Mawi","hebb",7,246544,"0.0-3.0-4.0","02rglerjcqzf",6578,"Enzyme Evib dissolves the membrane of organ Igoth.","Eshov","dissolves sth. of",11456,3,"dissolves sth. of","Evib","Igoth","Igoth","2",5,FALSE,TRUE,TRUE,"analog",0,0.666666666666667,17,4,8.791638037086,9.34635617589363,"bacteria2","none","other","none","morning","2016-05-03",0,3
"52","bacteria","Uhuy,Evib,Igoth,Aid,Eshov,Mawi","hebb",7,246544,"0.0-3.0-4.0","02rglerjcqzf",892,"Organ Igoth fails.","Igoth","fails",5984,2,"fails","Igoth",NA,NA,"3",5,TRUE,NA,TRUE,"analog",0,1,17,4,6.7945865808765,8.69701161799207,"bacteria3","none","none",NA,"morning","2016-05-03",0,3
"6","fish","Upno,Afik,Ubug,Olef,Eyem,Uwit","hebb",8,300567,"0.0-3.0-5.0","02rglerjcqzf",5383,"Fisher Upno cultivates sea grass Afik.","Uwit","cultivates",20106,3,"cultivates","Upno","Afik","Afik","1",6,FALSE,TRUE,TRUE,"filler",0,0.666666666666667,17,4,8.59118687132456,9.90882329212565,"fish1","none","other","none","morning","2016-05-03",0,3
"61","fish","Upno,Afik,Ubug,Olef,Eyem,Uwit","hebb",8,300567,"0.0-3.0-5.0","02rglerjcqzf",5368,"Sea grass Afik is eaten by fish Ubug.","Afik","is eaten by",12528,4,"is eaten by","Afik","Ubug","Ubug","2",6,TRUE,TRUE,TRUE,"filler",0,1,17,4,8.58839695042257,9.43580123624555,"fish2","none","none","none","morning","2016-05-03",0,3
"62","fish","Upno,Afik,Ubug,Olef,Eyem,Uwit","hebb",8,300567,"0.0-3.0-5.0","02rglerjcqzf",1008,"Fish Ubug is captured.","Ubug","is captured",8128,2,"is captured","Ubug",NA,NA,"3",6,TRUE,NA,TRUE,"filler",0,1,17,4,6.91671502035361,9.00319319374657,"fish3","none","none",NA,"morning","2016-05-03",0,3
"7","lawyer","Atmag,Owih,Vuloz,Hize,Ada,Gelyp","hebb",9,353392,"0.0-3.0-6.0","02rglerjcqzf",7434,"Lawyer Atmag finds loophole Owih.","Atmag","finds",14781,3,"finds","Atmag","Owih","Owih","1",7,TRUE,TRUE,TRUE,"analog",0,1,17,4,8.91395385889425,9.60116550334483,"lawyer1","none","none","none","morning","2016-05-03",0,4
"71","lawyer","Atmag,Owih,Vuloz,Hize,Ada,Gelyp","hebb",9,353392,"0.0-3.0-6.0","02rglerjcqzf",5171,"Loophole Owih bypasses contract of union Vuloz.","Owih","bypasses sth. of",12641,3,"bypasses sth. of","Owih","Vuloz","Vuloz","2",7,TRUE,TRUE,TRUE,"analog",0,1,17,4,8.55101473989175,9.44477988303224,"lawyer2","none","none","none","morning","2016-05-03",0,4
"72","lawyer","Atmag,Owih,Vuloz,Hize,Ada,Gelyp","hebb",9,353392,"0.0-3.0-6.0","02rglerjcqzf",812,"Union Vuloz loses a lawsuit.","Vuloz","loses sth.",10480,2,"loses sth.","Vuloz",NA,NA,"3",7,TRUE,NA,TRUE,"analog",0,1,17,4,6.70073110954781,9.25731937317018,"lawyer3","none","none",NA,"morning","2016-05-03",0,4
"8","meteo","Eefar,Vivaf,Upel,Rove,Thyra,Vipal","hebb",10,407264,"0.0-3.0-7.0","02rglerjcqzf",5184,"Cloud Eefar collects humidity over ocean Vivaf.","Eefar","collects humidity over",16659,3,"collects humidity over","Eefar","Vipal","Vivaf","1",8,TRUE,FALSE,TRUE,"filler",0,0.666666666666667,17,4,8.55352512066363,9.72076591572083,"meteo1","none","none","other","morning","2016-05-03",0,4
"81","meteo","Eefar,Vivaf,Upel,Rove,Thyra,Vipal","hebb",10,407264,"0.0-3.0-7.0","02rglerjcqzf",4092,"Ocean Vivaf lies next to the beaches of area Upel.","Vipal","lies next to",8070,3,"lies next to","Vivaf","Upel","Upel","2",8,FALSE,TRUE,TRUE,"filler",0,0.666666666666667,17,4,8.3170334764924,8.99603266932437,"meteo2","none","other","none","morning","2016-05-03",0,4
"82","meteo","Eefar,Vivaf,Upel,Rove,Thyra,Vipal","hebb",10,407264,"0.0-3.0-7.0","02rglerjcqzf",3994,"Area Upel is fertile.","Upel","is fertile",14368,2,"is fertile","Upel",NA,NA,"3",8,TRUE,NA,TRUE,"filler",0,1,17,4,8.29279885820037,9.57282838722921,"meteo3","none","none",NA,"morning","2016-05-03",0,4
"9","espionage","Thygef,Yuxeh,Owmi,Thisun,Irov,Enmob","hebb",11,455704,"0.0-3.0-8.0","02rglerjcqzf",4555,"Country Thygef trains spy Yuxeh.","Thygef","trains",13980,3,"trains","Thygef","Irov","Yuxeh","1",9,TRUE,FALSE,TRUE,"analog",0,0.666666666666667,17,4,8.42420032456707,9.54545454398782,"espionage1","none","none","other","morning","2016-05-03",0,5
"91","espionage","Thygef,Yuxeh,Owmi,Thisun,Irov,Enmob","hebb",11,455704,"0.0-3.0-8.0","02rglerjcqzf",3068,"Spy Yuxeh is hired by Intelligence Agency of country Owmi.","Irov","is hired by sth. of",11584,3,"is hired by sth. of","Yuxeh","Owmi","Owmi","2",9,FALSE,TRUE,TRUE,"analog",0,0.666666666666667,17,4,8.02910705461974,9.35746643686648,"espionage2","none","other","none","morning","2016-05-03",0,5
"92","espionage","Thygef,Yuxeh,Owmi,Thisun,Irov,Enmob","hebb",11,455704,"0.0-3.0-8.0","02rglerjcqzf",911,"Country Owmi has its secrets stolen.","Owmi","has sth. stolen",12840,4,"has sth. stolen","Owmi",NA,NA,"3",9,TRUE,NA,TRUE,"analog",0,1,17,4,6.81563999007433,9.46039845583127,"espionage3","none","none",NA,"morning","2016-05-03",0,5
"10","school","Thuha,Lothe,Afid,Pide,Molash,Fozeh","hebb",12,490072,"0.0-3.0-9.0","02rglerjcqzf",2688,"School girl Thuha hits boy Lothe.","Thuha","hits",8513,3,"hits","Thuha","Lothe","Lothe","1",10,TRUE,TRUE,TRUE,"filler",0,1,17,4,7.89692465626886,9.0494671463881,"school1","none","none","none","morning","2016-05-03",0,5
"101","school","Thuha,Lothe,Afid,Pide,Molash,Fozeh","hebb",12,490072,"0.0-3.0-9.0","02rglerjcqzf",1960,"Boy Lothe reports to teacher Afid.","Lothe","reports to",8696,3,"reports to","Lothe","Afid","Afid","2",10,TRUE,TRUE,TRUE,"filler",0,1,17,4,7.58120982619635,9.07073341758977,"school2","none","none","none","morning","2016-05-03",0,5
"102","school","Thuha,Lothe,Afid,Pide,Molash,Fozeh","hebb",12,490072,"0.0-3.0-9.0","02rglerjcqzf",1177,"Teacher Afid calls parents.","Afid","notifies parents",9832,3,"calls parents","Afid",NA,NA,"3",10,TRUE,NA,FALSE,"filler",0,0.5,17,4,7.07157336421153,9.19349935478016,"school3","syno","none",NA,"morning","2016-05-03",0,5
"12","crusader","Itbob,Titho,Roze,Rothuk,Ewey,Hoap","hebb",14,552952,"0.0-3.0-11.0","02rglerjcqzf",6950,"Crusader group Itbob bought weapon Titho.","Itbob","bought",17460,4,"bought","Itbob","Titho","Titho","1",12,TRUE,TRUE,TRUE,"analog",0,1,17,4,8.84664081310049,9.76772510152213,"crusader1","none","none","none","morning","2016-05-03",0,6
"121","crusader","Itbob,Titho,Roze,Rothuk,Ewey,Hoap","hebb",14,552952,"0.0-3.0-11.0","02rglerjcqzf",2920,"Weapon Titho breaches the fortification of town Roze.","Titho","breaches sth. of",9151,3,"breaches sth. of","Titho","Rothuk","Roze","2",12,TRUE,FALSE,TRUE,"analog",0,0.666666666666667,17,4,7.97968130238774,9.12172771361958,"crusader2","none","none","other","morning","2016-05-03",0,6
"122","crusader","Itbob,Titho,Roze,Rothuk,Ewey,Hoap","hebb",14,552952,"0.0-3.0-11.0","02rglerjcqzf",2600,"Town Roze is invaded.","Rothuk","is invaded",10152,2,"is invaded","Roze",NA,NA,"3",12,FALSE,NA,TRUE,"analog",0,0.5,17,4,7.86365126544865,9.22552450730122,"crusader3","none","other",NA,"morning","2016-05-03",0,6
"13","employee","Ifeh,Lenik,Ofes,Gabit,Awiz,Ezol","hebb",15,590048,"0.0-3.0-12.0","02rglerjcqzf",3185,"Employee Ifeh is assigned to project Lenik.","Ifeh","is referred to",10605,3,"is assigned to","Ifeh","Lenik","Lenik","1",13,TRUE,TRUE,FALSE,"filler",0,0.666666666666667,17,4,8.06652149046999,9.26917515769708,"employee1","syno","none","none","morning","2016-05-03",0,6
"131","employee","Ifeh,Lenik,Ofes,Gabit,Awiz,Ezol","hebb",15,590048,"0.0-3.0-12.0","02rglerjcqzf",3106,"Project Lenik supports agenda of manager Ofes.","Lenik","supports sth. of",8952,3,"supports sth. of","Lenik","Ofes","Ofes","2",13,TRUE,TRUE,TRUE,"filler",0,1,17,4,8.04141290939305,9.09974395063416,"employee2","none","none","none","morning","2016-05-03",0,6
"132","employee","Ifeh,Lenik,Ofes,Gabit,Awiz,Ezol","hebb",15,590048,"0.0-3.0-12.0","02rglerjcqzf",1209,"Manager Ofes gets a promotion.","Ofes","gets a promotion",8536,2,"gets a promotion","Ofes",NA,NA,"3",13,TRUE,NA,TRUE,"filler",0,1,17,4,7.09837563859079,9.05216493701031,"employee3","none","none",NA,"morning","2016-05-03",0,6
"14","robber","Uvman,Ahow,Eshbu,Kewos,Uyim,Huluw","hebb",16,635352,"0.0-3.0-13.0","02rglerjcqzf",3765,"Criminal Uvman learns about security issue Ahow.","Uvman","learns about",13022,5,"learns about","Uvman","Ahow","Ahow","1",14,TRUE,TRUE,TRUE,"analog",0,1,17,4,8.2337687092171,9.4744723039677,"robber1","none","none","none","morning","2016-05-03",0,7
"141","robber","Uvman,Ahow,Eshbu,Kewos,Uyim,Huluw","hebb",16,635352,"0.0-3.0-13.0","02rglerjcqzf",3293,"Security issue Ahow suspends alarm system of museum Eshbu.","Ahow","suspends sth. of",13376,3,"suspends sth. of","Ahow","Eshbu","Eshbu","2",14,TRUE,TRUE,TRUE,"analog",0,1,17,4,8.09985791073758,9.50129209329559,"robber2","none","none","none","morning","2016-05-03",0,7
"142","robber","Uvman,Ahow,Eshbu,Kewos,Uyim,Huluw","hebb",16,635352,"0.0-3.0-13.0","02rglerjcqzf",1153,"Museum Eshbu gets robbed.","Eshbu","gets robbed",9192,2,"gets robbed","Eshbu",NA,NA,"3",14,TRUE,NA,TRUE,"analog",0,1,17,4,7.05098944706805,9.12619760386375,"robber3","none","none",NA,"morning","2016-05-03",0,7
"15","mining","Puvi,Felac,Zimob,Yoges,Lyde,Izdep","hebb",17,701408,"0.0-3.0-14.0","02rglerjcqzf",21408,"Mining company Puvi has a lot of resource Felac.","Puvi","has a lot of",23550,3,"has a lot of","Puvi","Felac","Felac","1",15,TRUE,TRUE,TRUE,"filler",0,1,17,4,9.97156667334672,10.0669235613881,"mining1","none","none","none","morning","2016-05-03",0,7
"151","mining","Puvi,Felac,Zimob,Yoges,Lyde,Izdep","hebb",17,701408,"0.0-3.0-14.0","02rglerjcqzf",2298,"Resource Felac is sparse in country Zimob.","Felac","is sparse in",10168,3,"is sparse in","Felac","Zimob","Zimob","2",15,TRUE,TRUE,TRUE,"filler",0,1,17,4,7.74022952476318,9.22709915579114,"mining2","none","none","none","morning","2016-05-03",0,7
"152","mining","Puvi,Felac,Zimob,Yoges,Lyde,Izdep","hebb",17,701408,"0.0-3.0-14.0","02rglerjcqzf",848,"Country Zimob starts negotiating.","Zimob","starts negotiating",6280,2,"starts negotiating","Zimob",NA,NA,"3",15,TRUE,NA,TRUE,"filler",0,1,17,4,6.74405918631135,8.74528448245438,"mining3","none","none",NA,"morning","2016-05-03",0,7
"311","farm","Ahow,Orok,Upno,Napib,Uyim,Gena","hebb",3,206065,"0.0-3.0-0.0","0c5n478hs0a4",4988,"Farmer Ahow bought machine Orok.","Ahow","bought",21925,3,"bought","Ahow","Orok","Orok","1",1,TRUE,TRUE,TRUE,"filler",1,1,11,15,8.51499076786104,9.99542842623448,"farm1","none","none","none","morning","2016-05-14",1,1
"312","farm","Ahow,Orok,Upno,Napib,Uyim,Gena","hebb",3,206065,"0.0-3.0-0.0","0c5n478hs0a4",6167,"Machine Orok can collect fruit of plant Upno.","Orok","can collect",63029,3,"can collect","Orok","Upno","Upno","2",1,TRUE,TRUE,TRUE,"filler",1,1,11,15,8.72712991524317,11.0513660825072,"farm2","none","none","none","morning","2016-05-14",1,1
"313","farm","Ahow,Orok,Upno,Napib,Uyim,Gena","hebb",3,206065,"0.0-3.0-0.0","0c5n478hs0a4",1660,"Plant Upno are harvested automatically.","Upno","are harvested automatically",7938,2,"are harvested automatically","Upno",NA,NA,"3",1,TRUE,NA,TRUE,"filler",1,1,11,15,7.41517510961329,8.97954260172511,"farm3","none","none",NA,"morning","2016-05-14",1,1
"321","lawyer","Vuloz,Eshov,Yoges,Pide,Thyra,Izdep","hebb",4,271785,"0.0-3.0-1.0","0c5n478hs0a4",14600,"Lawyer Vuloz finds loophole Eshov.","Vuloz","finds",11028,3,"finds","Vuloz","Eshov","Eshov","1",2,TRUE,TRUE,TRUE,"analog",0,1,11,15,9.58884529850156,9.30828344630615,"lawyer1","none","none","none","morning","2016-05-14",1,1
"322","lawyer","Vuloz,Eshov,Yoges,Pide,Thyra,Izdep","hebb",4,271785,"0.0-3.0-1.0","0c5n478hs0a4",19486,"Loophole Eshov bypasses contract of union Yoges.","Eshov","bypasses sth. of",13061,3,"bypasses sth. of","Eshov","Yoges","Yoges","2",2,TRUE,TRUE,TRUE,"analog",0,1,11,15,9.87750285556413,9.4774625304626,"lawyer2","none","none","none","morning","2016-05-14",1,1
"323","lawyer","Vuloz,Eshov,Yoges,Pide,Thyra,Izdep","hebb",4,271785,"0.0-3.0-1.0","0c5n478hs0a4",1099,"Union Yoges loses a lawsuit.","Yoges","loses sth.",4937,2,"loses sth.","Yoges",NA,NA,"3",2,TRUE,NA,TRUE,"analog",0,1,11,15,7.00306545878646,8.50471566990512,"lawyer3","none","none",NA,"morning","2016-05-14",1,1
"331","fish","Uwit,Gelyp,Eyem,Enmob,Olef,Eshbu","hebb",5,353088,"0.0-3.0-2.0","0c5n478hs0a4",16206,"Fisher Uwit cultivates sea grass Gelyp.","Uwit","cultivates",8970,3,"cultivates","Uwit","Gelyp","Gelyp","1",3,TRUE,TRUE,TRUE,"filler",0,1,11,15,9.69319852665812,9.10175243155928,"fish1","none","none","none","morning","2016-05-14",1,2
"332","fish","Uwit,Gelyp,Eyem,Enmob,Olef,Eshbu","hebb",5,353088,"0.0-3.0-2.0","0c5n478hs0a4",12022,"Sea grass Gelyp is eaten by fish Eyem.","Eyem","is eaten by",25191,5,"is eaten by","Gelyp","Gelyp","Eyem","2",3,FALSE,FALSE,TRUE,"filler",0,0.333333333333333,11,15,9.39457676097491,10.1342817627809,"fish2","none","intra-stat","intra-stat","morning","2016-05-14",1,2
"333","fish","Uwit,Gelyp,Eyem,Enmob,Olef,Eshbu","hebb",5,353088,"0.0-3.0-2.0","0c5n478hs0a4",1237,"Fish Eyem is captured.","Eyem","is digested",16169,2,"is captured","Eyem",NA,NA,"3",3,TRUE,NA,FALSE,"filler",0,0.5,11,15,7.12125245324454,9.69091295257115,"fish3","grasyn","none",NA,"morning","2016-05-14",1,2
"34","hacker","Hoyl,Felac,Owmi,Afid,Thuha,Ribi","hebb",6,419231,"0.0-3.0-3.0","0c5n478hs0a4",11592,"Hacker Hoyl wrote computer code Felac.","Hoyl","cracks sth. of",20107,3,"wrote","Hoyl","Felac","Felac","1",4,TRUE,TRUE,FALSE,"analog",0,0.666666666666667,11,15,9.3581567466704,9.90887302481247,"hacker1","order","none","none","morning","2016-05-14",1,2
"341","hacker","Hoyl,Felac,Owmi,Afid,Thuha,Ribi","hebb",6,419231,"0.0-3.0-3.0","0c5n478hs0a4",7475,"Code Felac cracks the firewall of company Owmi.","Felac","cracks sth. of",13971,3,"cracks sth. of","Felac","Owmi","Owmi","2",4,TRUE,TRUE,TRUE,"analog",0,1,11,15,8.91945316857545,9.54481060592672,"hacker2","none","none","none","morning","2016-05-14",1,2
"342","hacker","Hoyl,Felac,Owmi,Afid,Thuha,Ribi","hebb",6,419231,"0.0-3.0-3.0","0c5n478hs0a4",4450,"Company Owmi suffers a data loss.","Owmi","suffers sth.",7042,2,"suffers sth.","Owmi",NA,NA,"3",4,TRUE,NA,TRUE,"analog",0,1,11,15,8.40088406901585,8.85978949474541,"hacker3","none","none",NA,"morning","2016-05-14",1,2
"35","employee","Roze,Molash,Huluw,Ihab,Hadith,Hize","hebb",7,442380,"0.0-3.0-4.0","0c5n478hs0a4",1210,"Employee Roze is assigned to project Molash.","Molash","supports sth. of",7675,3,"is assigned to","Roze","Huluw","Molash","1",5,FALSE,FALSE,FALSE,"filler",0,0,11,15,7.09920174355309,8.94585385712759,"employee1","order","intra-stat","inter-stat","morning","2016-05-14",1,3
"351","employee","Roze,Molash,Huluw,Ihab,Hadith,Hize","hebb",7,442380,"0.0-3.0-4.0","0c5n478hs0a4",3479,"Project Molash supports agenda of manager Huluw.","Huluw","gets a promotion",4903,2,"supports sth. of","Molash","","","2",5,FALSE,TRUE,FALSE,"filler",0,0.333333333333333,11,15,8.15478757276852,8.49780647761605,"employee2","order","inter-stat","none","morning","2016-05-14",1,3
"352","employee","Roze,Molash,Huluw,Ihab,Hadith,Hize","hebb",7,442380,"0.0-3.0-4.0","0c5n478hs0a4",1270,"Manager Huluw gets a promotion.","Huluw","gets a promotion",8009,2,"gets a promotion","Huluw",NA,NA,"3",5,TRUE,NA,TRUE,"filler",0,1,11,15,7.14755927118945,8.9884460400624,"employee3","none","none",NA,"morning","2016-05-14",1,3
"36","bacteria","Mewep,Idog,Kawud,Wecin,Aid,Dohod","hebb",8,480449,"0.0-3.0-5.0","0c5n478hs0a4",295,"Bacteria Mewep emits enzyme Idog.","Dohod","expels",20169,5,"emits","Mewep","Idog","Idog","1",6,FALSE,TRUE,FALSE,"analog",0,0.333333333333333,11,15,5.69035945432406,9.91195163094826,"bacteria1","syno","other","none","morning","2016-05-14",1,3
"361","bacteria","Mewep,Idog,Kawud,Wecin,Aid,Dohod","hebb",8,480449,"0.0-3.0-5.0","0c5n478hs0a4",3678,"Enzyme Idog dissolves the membrane of organ Kawud.","Idog","expels",7133,4,"dissolves sth. of","Idog","Kawud","Kawud","2",6,TRUE,TRUE,FALSE,"analog",0,0.666666666666667,11,15,8.21039625510477,8.87262736591884,"bacteria2","order-syno","none","none","morning","2016-05-14",1,3
"362","bacteria","Mewep,Idog,Kawud,Wecin,Aid,Dohod","hebb",8,480449,"0.0-3.0-5.0","0c5n478hs0a4",1093,"Organ Kawud fails.","Kawud","fails",4196,2,"fails","Kawud",NA,NA,"3",6,TRUE,NA,TRUE,"analog",0,1,11,15,6.99759598298193,8.34212526333359,"bacteria3","none","none",NA,"morning","2016-05-14",1,3
"37","school","Turow,Inag,Vilux,Gabit,Ofpoz,Puvi","hebb",9,519853,"0.0-3.0-6.0","0c5n478hs0a4",3000,"School girl Turow hits boy Inag.","Turow","hits",10060,3,"hits","Turow","Inag","Inag","1",7,TRUE,TRUE,TRUE,"filler",0,1,11,15,8.00670084544037,9.21642184229205,"school1","none","none","none","morning","2016-05-14",1,4
"371","school","Turow,Inag,Vilux,Gabit,Ofpoz,Puvi","hebb",9,519853,"0.0-3.0-6.0","0c5n478hs0a4",1880,"Boy Inag reports to teacher Vilux.","Inag","tells",15978,5,"reports to","Inag","Vilux","Vilux","2",7,TRUE,TRUE,FALSE,"filler",0,0.666666666666667,11,15,7.53955882930103,9.67903063913939,"school2","syno","none","none","morning","2016-05-14",1,4
"372","school","Turow,Inag,Vilux,Gabit,Ofpoz,Puvi","hebb",9,519853,"0.0-3.0-6.0","0c5n478hs0a4",1015,"Teacher Vilux calls parents.","Vilux","calls parents",5965,2,"calls parents","Vilux",NA,NA,"3",7,TRUE,NA,TRUE,"filler",0,1,11,15,6.92362862813843,8.69383196507469,"school3","none","none",NA,"morning","2016-05-14",1,4
"38","fox","Vivaf,Hoap,Ilres,Pishi,Saly,Goxos","hebb",10,560933,"0.0-3.0-7.0","0c5n478hs0a4",2925,"Fox Vivaf digs tunnel Hoap.","Vivaf","burrow",13640,3,"digs","Vivaf","Hoap","Hoap","1",8,TRUE,TRUE,FALSE,"analog",0,0.666666666666667,11,15,7.98139158158007,9.52083524249312,"fox1","syno","none","none","morning","2016-05-14",1,4
"381","fox","Vivaf,Hoap,Ilres,Pishi,Saly,Goxos","hebb",10,560933,"0.0-3.0-7.0","0c5n478hs0a4",1677,"Tunnel Hoap leads to coop of chicken Ilres.","Hoap","goes on sth. of",16488,3,"leads to sth. of","Hoap","Vivaf","Ilres","2",8,TRUE,FALSE,FALSE,"analog",0,0.333333333333333,11,15,7.42535788702715,9.71044877090097,"fox2","grasyn","none","inter-stat","morning","2016-05-14",1,4
"382","fox","Vivaf,Hoap,Ilres,Pishi,Saly,Goxos","hebb",10,560933,"0.0-3.0-7.0","0c5n478hs0a4",1037,"Chicken Ilres is devoured.","Vivaf","is missing",3807,2,"is devoured","Ilres",NA,NA,"3",8,FALSE,NA,FALSE,"analog",0,0,11,15,6.94505106372583,8.24485939591126,"fox3","grasyn","inter-stat",NA,"morning","2016-05-14",1,4
"39","mining","Lothe,Thisun,Thygef,Ofes,Ifeh,Mabi","hebb",11,642370,"0.0-3.0-8.0","0c5n478hs0a4",79,"Mining company Lothe has a lot of resource Thisun.","Ifeh","is sparked through",29655,4,"has a lot of","Lothe","Thisun","Thisun","1",9,FALSE,TRUE,FALSE,"filler",0,0.333333333333333,11,15,4.38202663467388,10.2974197448306,"mining1","order-grasyn","other","none","morning","2016-05-14",1,5
"391","mining","Lothe,Thisun,Thygef,Ofes,Ifeh,Mabi","hebb",11,642370,"0.0-3.0-8.0","0c5n478hs0a4",8161,"Resource Thisun is sparse in country Thygef.","Thisun","starts brokering",29390,3,"is sparse in","Thisun","Thygef","Thygef","2",9,TRUE,TRUE,FALSE,"filler",0,0.666666666666667,11,15,9.00724451596575,10.2884437840128,"mining2","order-syno","none","none","morning","2016-05-14",1,5
"392","mining","Lothe,Thisun,Thygef,Ofes,Ifeh,Mabi","hebb",11,642370,"0.0-3.0-8.0","0c5n478hs0a4",5526,"Country Thygef starts negotiating.","Thygef","starts negotiating",7121,2,"starts negotiating","Thygef",NA,NA,"3",9,TRUE,NA,TRUE,"filler",0,1,11,15,8.61740045183326,8.87094386383772,"mining3","none","none",NA,"morning","2016-05-14",1,5
"40","crusader","Ezol,Afi,Afik,Enwi,Yuxeh,Fozeh","hebb",12,703106,"0.0-3.0-9.0","0c5n478hs0a4",12427,"Crusader group Ezol bought weapon Afi.","Ezol","bought",11495,3,"bought","Ezol","Afi","Afi","1",10,TRUE,TRUE,TRUE,"analog",0,1,11,15,9.42770727051294,9.34975442775886,"crusader1","none","none","none","morning","2016-05-14",1,5
"401","crusader","Ezol,Afi,Afik,Enwi,Yuxeh,Fozeh","hebb",12,703106,"0.0-3.0-9.0","0c5n478hs0a4",8304,"Weapon Afi breaches the fortification of town Afik.","Afi","breaches sth. of",11553,3,"breaches sth. of","Afi","Afik","Afik","2",10,TRUE,TRUE,TRUE,"analog",0,1,11,15,9.0246130220474,9.35478697634121,"crusader2","none","none","none","morning","2016-05-14",1,5
"402","crusader","Ezol,Afi,Afik,Enwi,Yuxeh,Fozeh","hebb",12,703106,"0.0-3.0-9.0","0c5n478hs0a4",4871,"Town Afik is invaded.","Afik","is invaded",10581,2,"is invaded","Afik",NA,NA,"3",10,TRUE,NA,TRUE,"analog",0,1,11,15,8.49125980938973,9.26690972346408,"crusader3","none","none",NA,"morning","2016-05-14",1,5
"421","meteo","Lenik,Titho,Ottha,Ada,Potho,Wutoc","hebb",14,760623,"0.0-3.0-11.0","0c5n478hs0a4",6431,"Cloud Lenik collects humidity over ocean Titho.","Lenik","is located near",9123,3,"collects humidity over","Lenik","Ottha","Titho","1",12,TRUE,FALSE,FALSE,"filler",0,0.333333333333333,11,15,8.7690408108588,9.11866358340428,"meteo1","order-syno","none","inter-stat","morning","2016-05-14",1,6
"422","meteo","Lenik,Titho,Ottha,Ada,Potho,Wutoc","hebb",14,760623,"0.0-3.0-11.0","0c5n478hs0a4",2812,"Ocean Titho lies next to the beaches of area Ottha.","Ottha","is fertile",11056,2,"lies next to","Titho","","","2",12,FALSE,TRUE,FALSE,"filler",0,0.333333333333333,11,15,7.94200680848986,9.3108189905424,"meteo2","order","inter-stat","none","morning","2016-05-14",1,6
"423","meteo","Lenik,Titho,Ottha,Ada,Potho,Wutoc","hebb",14,760623,"0.0-3.0-11.0","0c5n478hs0a4",950,"Area Ottha is fertile.","Ottha","is fertile",13088,2,"is fertile","Ottha",NA,NA,"3",12,TRUE,NA,TRUE,"filler",0,1,11,15,6.85751406254539,9.47952746179172,"meteo3","none","none",NA,"morning","2016-05-14",1,6
"43","robber","Eefar,Awiz,Erok,Assit,Atmag,Ewey","hebb",15,807593,"0.0-3.0-12.0","0c5n478hs0a4",9099,"Criminal Eefar learns about security issue Awiz.","Eefar","learns about",13636,4,"learns about","Eefar","Awiz","Awiz","1",13,TRUE,TRUE,TRUE,"analog",0,1,11,15,9.11602969250494,9.52054196585783,"robber1","none","none","none","morning","2016-05-14",1,6
"431","robber","Eefar,Awiz,Erok,Assit,Atmag,Ewey","hebb",15,807593,"0.0-3.0-12.0","0c5n478hs0a4",6964,"Security issue Awiz suspends alarm system of museum Erok.","Awiz","suspends sth. of",9764,3,"suspends sth. of","Awiz","Erok","Erok","2",13,TRUE,TRUE,TRUE,"analog",0,1,11,15,8.84865288621391,9.18655984331078,"robber2","none","none","none","morning","2016-05-14",1,6
"432","robber","Eefar,Awiz,Erok,Assit,Atmag,Ewey","hebb",15,807593,"0.0-3.0-12.0","0c5n478hs0a4",1757,"Museum Erok gets robbed.","Erok","gets robbed",4243,2,"gets robbed","Erok",NA,NA,"3",13,TRUE,NA,TRUE,"analog",0,1,11,15,7.47193207824512,8.35326149973387,"robber3","none","none",NA,"morning","2016-05-14",1,6
"44","insect","Kewos,Rove,Vipal,Avyth,Igoth,Uhuy","hebb",16,848561,"0.0-3.0-13.0","0c5n478hs0a4",7215,"Perfume Kewos attracts insect Rove.","Kewos","approaches",13341,3,"attracts","Kewos","Rove","Rove","1",14,TRUE,TRUE,FALSE,"filler",0,0.666666666666667,11,15,8.88405606174246,9.49867223326946,"insect1","order-grasyn","none","none","morning","2016-05-14",1,7
"441","insect","Kewos,Rove,Vipal,Avyth,Igoth,Uhuy","hebb",16,848561,"0.0-3.0-13.0","0c5n478hs0a4",4766,"Insect Rove attacks woman Vipal.","Rove","attacks",6368,3,"attacks","Rove","Vipal","Vipal","2",14,TRUE,TRUE,TRUE,"filler",0,1,11,15,8.46947245520483,8.75919775037137,"insect2","none","none","none","morning","2016-05-14",1,7
"442","insect","Kewos,Rove,Vipal,Avyth,Igoth,Uhuy","hebb",16,848561,"0.0-3.0-13.0","0c5n478hs0a4",1237,"Woman Vipal has an allergic reaction.","Vipal","reacts allergically",6535,2,"has an allergic reaction","Vipal",NA,NA,"3",14,TRUE,NA,FALSE,"filler",0,0.5,11,15,7.12125245324454,8.78508063653984,"insect3","syno","none",NA,"morning","2016-05-14",1,7
"45","espionage","Ohuy,Owih,Itbob,Upum,Hosen,Olag","hebb",17,888714,"0.0-3.0-14.0","0c5n478hs0a4",7635,"Country Ohuy trains spy Owih.","Ohuy","trains",9650,3,"trains","Ohuy","Owih","Owih","1",15,TRUE,TRUE,TRUE,"analog",0,1,11,15,8.94062918484564,9.17481681590714,"espionage1","none","none","none","morning","2016-05-14",1,7
"451","espionage","Ohuy,Owih,Itbob,Upum,Hosen,Olag","hebb",17,888714,"0.0-3.0-14.0","0c5n478hs0a4",6580,"Spy Owih is hired by Intelligence Agency of country Itbob.","Owih","is hired by sth. of",8779,3,"is hired by sth. of","Owih","Itbob","Itbob","2",15,TRUE,TRUE,TRUE,"analog",0,1,11,15,8.79194198845612,9.08023168662916,"espionage2","none","none","none","morning","2016-05-14",1,7
"452","espionage","Ohuy,Owih,Itbob,Upum,Hosen,Olag","hebb",17,888714,"0.0-3.0-14.0","0c5n478hs0a4",1390,"Country Itbob has its secrets stolen.","Itbob","has sth. stolen",4614,2,"has sth. stolen","Itbob",NA,NA,"3",15,TRUE,NA,TRUE,"analog",0,1,11,15,7.23777819192344,8.43706714693695,"espionage3","none","none",NA,"morning","2016-05-14",1,7
"46","fox","Rove,Mabi,Rothuk,Afik,Vivaf,Lenik","hebb",3,218979,"0.0-3.0-0.0","0qte3tb2bmx0",16909,"Fox Rove digs tunnel Mabi.","Rove","digs",17918,3,"digs","Rove","Mabi","Mabi","1",1,TRUE,TRUE,TRUE,"analog",1,1,16,8,9.73566044189263,9.79361688140042,"fox1","none","none","none","morning","2016-05-03",0,1
"461","fox","Rove,Mabi,Rothuk,Afik,Vivaf,Lenik","hebb",3,218979,"0.0-3.0-0.0","0qte3tb2bmx0",26760,"Tunnel Mabi leads to coop of chicken Rothuk.","Mabi","leads to sth. of",15591,3,"leads to sth. of","Mabi","Rothuk","Rothuk","2",1,TRUE,TRUE,TRUE,"analog",1,1,16,8,10.1947008827517,9.6545132411874,"fox2","none","none","none","morning","2016-05-03",0,1
"462","fox","Rove,Mabi,Rothuk,Afik,Vivaf,Lenik","hebb",3,218979,"0.0-3.0-0.0","0qte3tb2bmx0",9503,"Chicken Rothuk is devoured.","Rothuk","is devoured",6823,2,"is devoured","Rothuk",NA,NA,"3",1,TRUE,NA,TRUE,"analog",1,1,16,8,9.15946804160243,8.82820108917151,"fox3","none","none",NA,"morning","2016-05-03",0,1
"47","employee","Hadith,Eshbu,Awiz,Epnux,Turow,Olag","hebb",4,338074,"0.0-3.0-1.0","0qte3tb2bmx0",21838,"Employee Hadith is assigned to project Eshbu.","Hadith","is assigned to",26173,3,"is assigned to","Hadith","Eshbu","Eshbu","1",2,TRUE,TRUE,TRUE,"filler",0,1,16,8,9.99145264126477,10.1725218306154,"employee1","none","none","none","morning","2016-05-03",0,1
"471","employee","Hadith,Eshbu,Awiz,Epnux,Turow,Olag","hebb",4,338074,"0.0-3.0-1.0","0qte3tb2bmx0",11743,"Project Eshbu supports agenda of manager Awiz.","Eshbu","supports sth. of",34543,3,"supports sth. of","Eshbu","Awiz","Awiz","2",2,TRUE,TRUE,TRUE,"filler",0,1,16,8,9.3710977508543,10.4499891527546,"employee2","none","none","none","morning","2016-05-03",0,1
"472","employee","Hadith,Eshbu,Awiz,Epnux,Turow,Olag","hebb",4,338074,"0.0-3.0-1.0","0qte3tb2bmx0",12312,"Manager Awiz gets a promotion.","Awiz","gets a promotion",10969,2,"gets a promotion","Awiz",NA,NA,"3",2,TRUE,NA,TRUE,"filler",0,1,16,8,9.41841089379287,9.30291955326928,"employee3","none","none",NA,"morning","2016-05-03",0,1
"48","espionage","Pide,Owmi,Igoth,Uvman,Hoap,Uyim","hebb",5,485634,"0.0-3.0-2.0","0qte3tb2bmx0",26975,"Country Pide trains spy Owmi.","Pide","trains",16551,3,"trains","Pide","Igoth","Owmi","1",3,TRUE,FALSE,TRUE,"analog",0,0.666666666666667,16,8,10.2027028608016,9.71426221942538,"espionage1","none","none","inter-stat","morning","2016-05-03",0,2
"481","espionage","Pide,Owmi,Igoth,Uvman,Hoap,Uyim","hebb",5,485634,"0.0-3.0-2.0","0qte3tb2bmx0",16304,"Spy Owmi is hired by Intelligence Agency of country Igoth.","Owmi","is hired by sth. of",62848,7,"is hired by sth. of","Owmi","Igoth","Igoth","2",3,TRUE,TRUE,TRUE,"analog",0,1,16,8,9.69922708822342,11.0484903029928,"espionage2","none","none","none","morning","2016-05-03",0,2
"482","espionage","Pide,Owmi,Igoth,Uvman,Hoap,Uyim","hebb",5,485634,"0.0-3.0-2.0","0qte3tb2bmx0",9296,"Country Igoth has its secrets stolen.","Igoth","has sth. stolen",14056,2,"has sth. stolen","Igoth",NA,NA,"3",3,TRUE,NA,TRUE,"analog",0,1,16,8,9.13744704645586,9.55087577133177,"espionage3","none","none",NA,"morning","2016-05-03",0,2
"49","insect","Hosen,Roze,Felac,Thygef,Ebib,Ada","hebb",6,568683,"0.0-3.0-3.0","0qte3tb2bmx0",21988,"Perfume Hosen attracts insect Roze.","Hosen","attacks",17626,3,"attracts","Hosen","Roze","Roze","1",4,TRUE,TRUE,FALSE,"filler",0,0.666666666666667,16,8,9.99829760729877,9.77718709641995,"insect1","order","none","none","morning","2016-05-03",0,2
"491","insect","Hosen,Roze,Felac,Thygef,Ebib,Ada","hebb",6,568683,"0.0-3.0-3.0","0qte3tb2bmx0",12807,"Insect Roze attacks woman Felac.","Roze","attacks",14240,3,"attacks","Roze","Felac","Felac","2",4,TRUE,TRUE,TRUE,"filler",0,1,16,8,9.45782525467655,9.56388040721943,"insect2","none","none","none","morning","2016-05-03",0,2
"492","insect","Hosen,Roze,Felac,Thygef,Ebib,Ada","hebb",6,568683,"0.0-3.0-3.0","0qte3tb2bmx0",7960,"Woman Felac has an allergic reaction.","Felac","has an allergic reaction",6897,2,"has an allergic reaction","Felac",NA,NA,"3",4,TRUE,NA,TRUE,"filler",0,1,16,8,8.98230989908858,8.83898679349679,"insect3","none","none",NA,"morning","2016-05-03",0,2
"50","crusader","Meuf,Yuxeh,Mawi,Uhuy,Wehif,Izdep","hebb",7,700826,"0.0-3.0-4.0","0qte3tb2bmx0",40694,"Crusader group Meuf bought weapon Yuxeh.","Meuf","acquired",28321,3,"bought","Meuf","Yuxeh","Yuxeh","1",5,TRUE,TRUE,FALSE,"analog",0,0.666666666666667,16,8,10.6138605137611,10.251394166783,"crusader1","syno","none","none","morning","2016-05-03",0,3
"501","crusader","Meuf,Yuxeh,Mawi,Uhuy,Wehif,Izdep","hebb",7,700826,"0.0-3.0-4.0","0qte3tb2bmx0",11888,"Weapon Yuxeh breaches the fortification of town Mawi.","Yuxeh","acquired",33800,5,"breaches sth. of","Yuxeh","Mawi","Mawi","2",5,TRUE,TRUE,FALSE,"analog",0,0.666666666666667,16,8,9.38336888185854,10.4282456668323,"crusader2","order-syno","none","none","morning","2016-05-03",0,3
"502","crusader","Meuf,Yuxeh,Mawi,Uhuy,Wehif,Izdep","hebb",7,700826,"0.0-3.0-4.0","0qte3tb2bmx0",9512,"Town Mawi is invaded.","Mawi","is invaded",6368,2,"is invaded","Mawi",NA,NA,"3",5,TRUE,NA,TRUE,"analog",0,1,16,8,9.16041456320646,8.75919775037137,"crusader3","none","none",NA,"morning","2016-05-03",0,3
"511","fish","Eshov,Vuloz,Afi,Hoyl,Vipal,Yoges","hebb",8,794946,"0.0-3.0-5.0","0qte3tb2bmx0",21299,"Fisher Eshov cultivates sea grass Vuloz.","Eshov","cultivates",21109,3,"cultivates","Eshov","Vuloz","Vuloz","1",6,TRUE,TRUE,TRUE,"filler",0,1,16,8,9.96646235169752,9.95750214084237,"fish1","none","none","none","morning","2016-05-03",0,3
"512","fish","Eshov,Vuloz,Afi,Hoyl,Vipal,Yoges","hebb",8,794946,"0.0-3.0-5.0","0qte3tb2bmx0",14640,"Sea grass Vuloz is eaten by fish Afi.","Vuloz","is eaten by",17776,3,"is eaten by","Vuloz","Afi","Afi","2",6,TRUE,TRUE,TRUE,"filler",0,1,16,8,9.59158109119348,9.78566076592269,"fish2","none","none","none","morning","2016-05-03",0,3
"513","fish","Eshov,Vuloz,Afi,Hoyl,Vipal,Yoges","hebb",8,794946,"0.0-3.0-5.0","0qte3tb2bmx0",6559,"Fish Afi is captured.","Afi","is captured",11200,2,"is captured","Afi",NA,NA,"3",6,TRUE,NA,TRUE,"filler",0,1,16,8,8.78874588193814,9.32375833901174,"fish3","none","none",NA,"morning","2016-05-03",0,3
"521","robber","Ifeh,Goxos,Kawud,Afid,Assit,Napib","hebb",9,886691,"0.0-3.0-6.0","0qte3tb2bmx0",18661,"Criminal Ifeh learns about security issue Goxos.","Ifeh","learns about",15041,3,"learns about","Ifeh","Goxos","Goxos","1",7,TRUE,TRUE,TRUE,"analog",0,1,16,8,9.83424464979397,9.61860156738635,"robber1","none","none","none","morning","2016-05-03",0,4
"522","robber","Ifeh,Goxos,Kawud,Afid,Assit,Napib","hebb",9,886691,"0.0-3.0-6.0","0qte3tb2bmx0",11928,"Security issue Goxos suspends alarm system of museum Kawud.","Goxos","disrupts sth. of",18952,3,"suspends sth. of","Goxos","Kawud","Kawud","2",7,TRUE,TRUE,FALSE,"analog",0,0.666666666666667,16,8,9.38672768928195,9.8497175093263,"robber2","syno","none","none","morning","2016-05-03",0,4
"523","robber","Ifeh,Goxos,Kawud,Afid,Assit,Napib","hebb",9,886691,"0.0-3.0-6.0","0qte3tb2bmx0",10471,"Museum Kawud gets robbed.","Kawud","gets robbed",15144,2,"gets robbed","Kawud",NA,NA,"3",7,TRUE,NA,TRUE,"analog",0,1,16,8,9.25646030758974,9.62542572346134,"robber3","none","none",NA,"morning","2016-05-03",0,4
"53","mining","Huluw,Ottha,Paza,Molash,Upum,Ihab","hebb",10,980971,"0.0-3.0-7.0","0qte3tb2bmx0",19649,"Mining company Huluw has a lot of resource Ottha.","Huluw","has a lot of",16378,3,"has a lot of","Huluw","Ottha","Ottha","1",8,TRUE,TRUE,TRUE,"filler",0,1,16,8,9.88583261729741,9.70375530548238,"mining1","none","none","none","morning","2016-05-03",0,4
"531","mining","Huluw,Ottha,Paza,Molash,Upum,Ihab","hebb",10,980971,"0.0-3.0-7.0","0qte3tb2bmx0",15144,"Resource Ottha is sparse in country Paza.","Ottha","is sparse in",20527,3,"is sparse in","Ottha","Paza","Paza","2",8,TRUE,TRUE,TRUE,"filler",0,1,16,8,9.62542572346134,9.92954508685542,"mining2","none","none","none","morning","2016-05-03",0,4
"532","mining","Huluw,Ottha,Paza,Molash,Upum,Ihab","hebb",10,980971,"0.0-3.0-7.0","0qte3tb2bmx0",9479,"Country Paza starts negotiating.","Paza","starts negotiating",11568,2,"starts negotiating","Paza",NA,NA,"3",8,TRUE,NA,TRUE,"filler",0,1,16,8,9.15693959524907,9.35608438602889,"mining3","none","none",NA,"morning","2016-05-03",0,4
"54","hacker","Puvi,Saly,Upno,Gelyp,Atmag,Idog","hebb",11,1066490,"0.0-3.0-8.0","0qte3tb2bmx0",13186,"Hacker Puvi wrote computer code Saly.","Puvi","wrote",27815,3,"wrote","Puvi","Saly","Saly","1",9,TRUE,TRUE,TRUE,"analog",0,1,16,8,9.4869867748077,10.2333666736877,"hacker1","none","none","none","morning","2016-05-03",0,5
"541","hacker","Puvi,Saly,Upno,Gelyp,Atmag,Idog","hebb",11,1066490,"0.0-3.0-8.0","0qte3tb2bmx0",9887,"Code Saly cracks the firewall of company Upno.","Saly","suffers sth.",13536,3,"cracks sth. of","Saly","Upno","Upno","2",9,TRUE,TRUE,FALSE,"analog",0,0.666666666666667,16,8,9.19907717969747,9.51318195618579,"hacker2","order","none","none","morning","2016-05-03",0,5
"542","hacker","Puvi,Saly,Upno,Gelyp,Atmag,Idog","hebb",11,1066490,"0.0-3.0-8.0","0qte3tb2bmx0",9483,"Company Upno suffers a data loss.","Upno","suffers sth.",10056,2,"suffers sth.","Upno",NA,NA,"3",9,TRUE,NA,TRUE,"analog",0,1,16,8,9.1573614471853,9.21602418844448,"hacker3","none","none",NA,"morning","2016-05-03",0,5
"55","meteo","Upel,Kewos,Mewep,Ilres,Evib,Hize","hebb",12,1151450,"0.0-3.0-9.0","0qte3tb2bmx0",19099,"Cloud Upel collects humidity over ocean Kewos.","Upel","collects humidity over",20042,3,"collects humidity over","Upel","Kewos","Kewos","1",10,TRUE,TRUE,TRUE,"filler",0,1,16,8,9.85744361403472,9.90563524459359,"meteo1","none","none","none","morning","2016-05-03",0,5
"551","meteo","Upel,Kewos,Mewep,Ilres,Evib,Hize","hebb",12,1151450,"0.0-3.0-9.0","0qte3tb2bmx0",11000,"Ocean Kewos lies next to the beaches of area Mewep.","Kewos","lies next to",16784,4,"lies next to","Kewos","Mewep","Mewep","2",10,TRUE,TRUE,TRUE,"filler",0,1,16,8,9.30574145673943,9.72824090941413,"meteo2","none","none","none","morning","2016-05-03",0,5
"552","meteo","Upel,Kewos,Mewep,Ilres,Evib,Hize","hebb",12,1151450,"0.0-3.0-9.0","0qte3tb2bmx0",6791,"Area Mewep is fertile.","Mewep","is fertile",9712,2,"is fertile","Mewep",NA,NA,"3",10,TRUE,NA,TRUE,"filler",0,1,16,8,8.82350072799118,9.18122047340233,"meteo3","none","none",NA,"morning","2016-05-03",0,5
"57","bacteria","Olef,Lothe,Enmob,Pishi,Vilux,Zimob","hebb",14,1248219,"0.0-3.0-11.0","0qte3tb2bmx0",12942,"Bacteria Olef emits enzyme Lothe.","Olef","emits",13673,3,"emits","Olef","Lothe","Lothe","1",12,TRUE,TRUE,TRUE,"analog",0,1,16,8,9.46831038044244,9.52325149847374,"bacteria1","none","none","none","morning","2016-05-03",0,6
"571","bacteria","Olef,Lothe,Enmob,Pishi,Vilux,Zimob","hebb",14,1248219,"0.0-3.0-11.0","0qte3tb2bmx0",9736,"Enzyme Lothe dissolves the membrane of organ Enmob.","Lothe","dissolves sth. of",11418,3,"dissolves sth. of","Lothe","Enmob","Enmob","2",12,TRUE,TRUE,TRUE,"analog",0,1,16,8,9.18368834097876,9.34303391370165,"bacteria2","none","none","none","morning","2016-05-03",0,6
"572","bacteria","Olef,Lothe,Enmob,Pishi,Vilux,Zimob","hebb",14,1248219,"0.0-3.0-11.0","0qte3tb2bmx0",9048,"Organ Enmob fails.","Enmob","fails",5566,2,"fails","Enmob",NA,NA,"3",12,TRUE,NA,TRUE,"analog",0,1,16,8,9.11040953335113,8.62461158818351,"bacteria3","none","none",NA,"morning","2016-05-03",0,6
"58","farm","Inag,Titho,Thisun,Uwit,Wutoc,Ezol","hebb",15,1344075,"0.0-3.0-12.0","0qte3tb2bmx0",9392,"Farmer Inag bought machine Titho.","Inag","purchased",21138,3,"bought","Inag","Titho","Titho","1",13,TRUE,TRUE,FALSE,"filler",0,0.666666666666667,16,8,9.14772000999452,9.95887495461569,"farm1","syno","none","none","morning","2016-05-03",0,6
"581","farm","Inag,Titho,Thisun,Uwit,Wutoc,Ezol","hebb",15,1344075,"0.0-3.0-12.0","0qte3tb2bmx0",13159,"Machine Titho can collect fruit of plant Thisun.","Titho","can collect",27608,3,"can collect","Titho","Thisun","Thisun","2",13,TRUE,TRUE,TRUE,"filler",0,1,16,8,9.48493720487931,10.225897085507,"farm2","none","none","none","morning","2016-05-03",0,6
"582","farm","Inag,Titho,Thisun,Uwit,Wutoc,Ezol","hebb",15,1344075,"0.0-3.0-12.0","0qte3tb2bmx0",11921,"Plant Thisun are harvested automatically.","Thisun","are harvested automatically",11112,3,"are harvested automatically","Thisun",NA,NA,"3",13,TRUE,NA,TRUE,"filler",0,1,16,8,9.38614071177987,9.31587087318565,"farm3","none","none",NA,"morning","2016-05-03",0,6
"59","lawyer","Enwi,Gena,Ribi,Dohod,Gabit,Ofpoz","hebb",16,1424858,"0.0-3.0-13.0","0qte3tb2bmx0",13341,"Lawyer Enwi finds loophole Gena.","Enwi","files sth.",23905,3,"finds","Enwi","Gena","Gena","1",14,TRUE,TRUE,FALSE,"analog",0,0.666666666666667,16,8,9.49867223326946,10.0818847524379,"lawyer1","order-grasyn","none","none","morning","2016-05-03",0,7
"591","lawyer","Enwi,Gena,Ribi,Dohod,Gabit,Ofpoz","hebb",16,1424858,"0.0-3.0-13.0","0qte3tb2bmx0",16481,"Loophole Gena bypasses contract of union Ribi.","Gena","bypasses sth. of",10768,3,"bypasses sth. of","Gena","Ribi","Ribi","2",14,TRUE,TRUE,TRUE,"analog",0,1,16,8,9.71002415532333,9.28442691532888,"lawyer2","none","none","none","morning","2016-05-03",0,7
"592","lawyer","Enwi,Gena,Ribi,Dohod,Gabit,Ofpoz","hebb",16,1424858,"0.0-3.0-13.0","0qte3tb2bmx0",7752,"Union Ribi loses a lawsuit.","Ribi","loses sth.",6984,2,"loses sth.","Ribi",NA,NA,"3",14,TRUE,NA,TRUE,"analog",0,1,16,8,8.95583514421896,8.85152027169106,"lawyer3","none","none",NA,"morning","2016-05-03",0,7
"60","school","Aid,Erok,Thyra,Potho,Orok,Ewey","hebb",17,1499634,"0.0-3.0-14.0","0qte3tb2bmx0",13832,"School girl Aid hits boy Erok.","Aid","hits",18015,3,"hits","Aid","Erok","Erok","1",15,TRUE,TRUE,TRUE,"filler",0,1,16,8,9.53481232087482,9.79901553093942,"school1","none","none","none","morning","2016-05-03",0,7
"601","school","Aid,Erok,Thyra,Potho,Orok,Ewey","hebb",17,1499634,"0.0-3.0-14.0","0qte3tb2bmx0",10551,"Boy Erok reports to teacher Thyra.","Erok","reports to",17032,3,"reports to","Erok","Thyra","Thyra","2",15,TRUE,TRUE,TRUE,"filler",0,1,16,8,9.26407069439715,9.74290791786058,"school2","none","none","none","morning","2016-05-03",0,7
"602","school","Aid,Erok,Thyra,Potho,Orok,Ewey","hebb",17,1499634,"0.0-3.0-14.0","0qte3tb2bmx0",7633,"Teacher Thyra calls parents.","Thyra","calls parents",6152,2,"calls parents","Thyra",NA,NA,"3",15,TRUE,NA,TRUE,"filler",0,1,16,8,8.94036723330517,8.72469504674049,"school3","none","none",NA,"morning","2016-05-03",0,7
"76","bacteria","Eefar,Ottha,Thygef,Ezol,Ilres,Ribi","hebb",3,86745,"0.0-3.0-0.0","0rbz3087c78n",11361,"Bacteria Eefar emits enzyme Ottha.","Eefar","emits",18565,3,"emits","Eefar","Ottha","Ottha","1",1,TRUE,TRUE,TRUE,"analog",1,1,16,15,9.33802973311707,9.82908722995988,"bacteria1","none","none","none","morning","2016-05-03",0,1
"761","bacteria","Eefar,Ottha,Thygef,Ezol,Ilres,Ribi","hebb",3,86745,"0.0-3.0-0.0","0rbz3087c78n",11646,"Enzyme Ottha dissolves the membrane of organ Thygef.","Ottha","dissolves sth. of",11442,3,"dissolves sth. of","Ottha","Thygef","Thygef","2",1,TRUE,TRUE,TRUE,"analog",1,1,16,15,9.36280391510265,9.34513346831771,"bacteria2","none","none","none","morning","2016-05-03",0,1
"762","bacteria","Eefar,Ottha,Thygef,Ezol,Ilres,Ribi","hebb",3,86745,"0.0-3.0-0.0","0rbz3087c78n",4344,"Organ Thygef fails.","Thygef","fails",6774,2,"fails","Thygef",NA,NA,"3",1,TRUE,NA,TRUE,"analog",1,1,16,15,8.37678103769949,8.8209946457479,"bacteria3","none","none",NA,"morning","2016-05-03",0,1
"77","school","Ada,Vilux,Kewos,Inag,Napib,Erok","hebb",4,146360,"0.0-3.0-1.0","0rbz3087c78n",11397,"School girl Ada hits boy Vilux.","Ada","hits",11223,3,"hits","Ada","Vilux","Vilux","1",2,TRUE,TRUE,TRUE,"filler",0,1,16,15,9.34119318039495,9.3258096217823,"school1","none","none","none","morning","2016-05-03",0,1
"771","school","Ada,Vilux,Kewos,Inag,Napib,Erok","hebb",4,146360,"0.0-3.0-1.0","0rbz3087c78n",8607,"Boy Vilux reports to teacher Kewos.","Vilux","reports to",11862,3,"reports to","Vilux","Kewos","Kewos","2",2,TRUE,TRUE,TRUE,"filler",0,1,16,15,9.06044728240157,9.3811795916611,"school2","none","none","none","morning","2016-05-03",0,1
"772","school","Ada,Vilux,Kewos,Inag,Napib,Erok","hebb",4,146360,"0.0-3.0-1.0","0rbz3087c78n",6031,"Teacher Kewos calls parents.","Kewos","calls parents",8983,2,"calls parents","Kewos",NA,NA,"3",2,TRUE,NA,TRUE,"filler",0,1,16,15,8.70483390968779,9.10320049641828,"school3","none","none",NA,"morning","2016-05-03",0,1
"78","lawyer","Thuha,Itbob,Atmag,Thyra,Ahow,Meuf","hebb",5,205432,"0.0-3.0-2.0","0rbz3087c78n",11910,"Lawyer Thuha finds loophole Itbob.","Thuha","finds",12696,4,"finds","Thuha","Itbob","Itbob","1",3,TRUE,TRUE,TRUE,"analog",0,1,16,15,9.3852176218809,9.44912102406979,"lawyer1","none","none","none","morning","2016-05-03",0,2
"781","lawyer","Thuha,Itbob,Atmag,Thyra,Ahow,Meuf","hebb",5,205432,"0.0-3.0-2.0","0rbz3087c78n",7998,"Loophole Itbob bypasses contract of union Atmag.","Itbob","bypasses sth. of",10096,3,"bypasses sth. of","Itbob","Atmag","Atmag","2",3,TRUE,TRUE,TRUE,"analog",0,1,16,15,8.98707181284882,9.21999362900432,"lawyer2","none","none","none","morning","2016-05-03",0,2
"782","lawyer","Thuha,Itbob,Atmag,Thyra,Ahow,Meuf","hebb",5,205432,"0.0-3.0-2.0","0rbz3087c78n",5895,"Union Atmag loses a lawsuit.","Atmag","loses sth.",8965,2,"loses sth.","Atmag",NA,NA,"3",3,TRUE,NA,TRUE,"analog",0,1,16,15,8.68202943386917,9.10119492471538,"lawyer3","none","none",NA,"morning","2016-05-03",0,2
"79","employee","Puvi,Turow,Pide,Vuloz,Idog,Rothuk","hebb",6,276789,"0.0-3.0-3.0","0rbz3087c78n",9341,"Employee Puvi is assigned to project Turow.","Puvi","is arranged to",32831,3,"is assigned to","Puvi","Turow","Turow","1",4,TRUE,TRUE,FALSE,"filler",0,0.666666666666667,16,15,9.14227564106205,10.3991589285304,"employee1","grasyn","none","none","morning","2016-05-03",0,2
"791","employee","Puvi,Turow,Pide,Vuloz,Idog,Rothuk","hebb",6,276789,"0.0-3.0-3.0","0rbz3087c78n",6504,"Project Turow supports agenda of manager Pide.","Turow","supports sth. of",10446,3,"supports sth. of","Turow","Pide","Pide","2",4,TRUE,TRUE,TRUE,"filler",0,1,16,15,8.78032639094661,9.25407013483751,"employee2","none","none","none","morning","2016-05-03",0,2
"792","employee","Puvi,Turow,Pide,Vuloz,Idog,Rothuk","hebb",6,276789,"0.0-3.0-3.0","0rbz3087c78n",5502,"Manager Pide gets a promotion.","Pide","gets a promotion",5222,2,"gets a promotion","Pide",NA,NA,"3",4,TRUE,NA,TRUE,"filler",0,1,16,15,8.61304867705976,8.5608272284363,"employee3","none","none",NA,"morning","2016-05-03",0,2
"80","fox","Olag,Afik,Ihab,Hadith,Uwit,Ofpoz","hebb",7,370784,"0.0-3.0-4.0","0rbz3087c78n",9817,"Fox Olag digs tunnel Afik.","Olag","digs",23832,3,"digs","Olag","Afik","Afik","1",5,TRUE,TRUE,TRUE,"analog",0,1,16,15,9.191972714618,10.0788264539022,"fox1","none","none","none","morning","2016-05-03",0,3
"801","fox","Olag,Afik,Ihab,Hadith,Uwit,Ofpoz","hebb",7,370784,"0.0-3.0-4.0","0rbz3087c78n",9103,"Tunnel Afik leads to coop of chicken Ihab.","Afik","leads to sth. of",23655,3,"leads to sth. of","Afik","Olag","Ihab","2",5,TRUE,FALSE,TRUE,"analog",0,0.666666666666667,16,15,9.11646915636611,10.0713720615323,"fox2","none","none","inter-stat","morning","2016-05-03",0,3
"802","fox","Olag,Afik,Ihab,Hadith,Uwit,Ofpoz","hebb",7,370784,"0.0-3.0-4.0","0rbz3087c78n",4535,"Chicken Ihab is devoured.","Ihab","is devoured",21544,2,"is devoured","Ihab",NA,NA,"3",5,TRUE,NA,TRUE,"analog",0,1,16,15,8.41980084540759,9.97789905004994,"fox3","none","none",NA,"morning","2016-05-03",0,3
"811","farm","Ewey,Mabi,Mawi,Izdep,Gabit,Felac","hebb",8,441702,"0.0-3.0-5.0","0rbz3087c78n",16164,"Farmer Ewey bought machine Mabi.","Ewey","bought",8680,3,"bought","Ewey","Mabi","Mabi","1",6,TRUE,TRUE,TRUE,"filler",0,1,16,15,9.69060369015953,9.06889200839181,"farm1","none","none","none","morning","2016-05-03",0,3
"812","farm","Ewey,Mabi,Mawi,Izdep,Gabit,Felac","hebb",8,441702,"0.0-3.0-5.0","0rbz3087c78n",17368,"Machine Mabi can collect fruit of plant Mawi.","Mabi","can collect",12407,3,"can collect","Mabi","Mawi","Mawi","2",6,TRUE,TRUE,TRUE,"filler",0,1,16,15,9.76244228705401,9.42609670485638,"farm2","none","none","none","morning","2016-05-03",0,3
"813","farm","Ewey,Mabi,Mawi,Izdep,Gabit,Felac","hebb",8,441702,"0.0-3.0-5.0","0rbz3087c78n",8398,"Plant Mawi are harvested automatically.","Mawi","are harvested automatically",6391,2,"are harvested automatically","Mawi",NA,NA,"3",6,TRUE,NA,TRUE,"filler",0,1,16,15,9.03586793012563,8.76280248744611,"farm3","none","none",NA,"morning","2016-05-03",0,3
"821","robber","Zimob,Epnux,Thisun,Aid,Lothe,Orok","hebb",9,504413,"0.0-3.0-6.0","0rbz3087c78n",11501,"Criminal Zimob learns about security issue Epnux.","Lothe","learns about",17175,5,"learns about","Zimob","Epnux","Epnux","1",7,FALSE,TRUE,TRUE,"analog",0,0.666666666666667,16,15,9.3502762122737,9.75126833955862,"robber1","none","other","none","morning","2016-05-03",0,4
"822","robber","Zimob,Epnux,Thisun,Aid,Lothe,Orok","hebb",9,504413,"0.0-3.0-6.0","0rbz3087c78n",8217,"Security issue Epnux suspends alarm system of museum Thisun.","Epnux","suspends sth. of",13944,3,"suspends sth. of","Epnux","Thisun","Thisun","2",7,TRUE,TRUE,TRUE,"analog",0,1,16,15,9.01408214944336,9.54287630006159,"robber2","none","none","none","morning","2016-05-03",0,4
"823","robber","Zimob,Epnux,Thisun,Aid,Lothe,Orok","hebb",9,504413,"0.0-3.0-6.0","0rbz3087c78n",5501,"Museum Thisun gets robbed.","Thisun","gets robbed",4861,2,"gets robbed","Thisun",NA,NA,"3",7,TRUE,NA,TRUE,"analog",0,1,16,15,8.61286694148452,8.48920515487607,"robber3","none","none",NA,"morning","2016-05-03",0,4
"83","fish","Vipal,Ebib,Awiz,Huluw,Eshov,Avyth","hebb",10,569301,"0.0-3.0-7.0","0rbz3087c78n",11021,"Fisher Vipal cultivates sea grass Ebib.","Vipal","cultivates",19728,4,"cultivates","Vipal","Eshov","Ebib","1",8,TRUE,FALSE,TRUE,"filler",0,0.666666666666667,16,15,9.30764855444318,9.88984491349497,"fish1","none","none","other","morning","2016-05-03",0,4
"831","fish","Vipal,Ebib,Awiz,Huluw,Eshov,Avyth","hebb",10,569301,"0.0-3.0-7.0","0rbz3087c78n",7889,"Sea grass Ebib is eaten by fish Awiz.","Eshov","is eaten by",14751,3,"is eaten by","Ebib","Awiz","Awiz","2",8,FALSE,TRUE,TRUE,"filler",0,0.666666666666667,16,15,8.97335141383992,9.59913394579637,"fish2","none","other","none","morning","2016-05-03",0,4
"832","fish","Vipal,Ebib,Awiz,Huluw,Eshov,Avyth","hebb",10,569301,"0.0-3.0-7.0","0rbz3087c78n",4422,"Fish Awiz is captured.","Awiz","is captured",5565,2,"is captured","Awiz",NA,NA,"3",8,TRUE,NA,TRUE,"filler",0,1,16,15,8.39457347786833,8.62443194208584,"fish3","none","none",NA,"morning","2016-05-03",0,4
"84","hacker","Evib,Owmi,Eshbu,Pishi,Irov,Lenik","hebb",11,672096,"0.0-3.0-8.0","0rbz3087c78n",9606,"Hacker Evib wrote computer code Owmi.","Evib","wrote",16770,3,"wrote","Evib","Owmi","Owmi","1",9,TRUE,TRUE,TRUE,"analog",0,1,16,15,9.17024727840974,9.72740648333163,"hacker1","none","none","none","morning","2016-05-03",0,5
"841","hacker","Evib,Owmi,Eshbu,Pishi,Irov,Lenik","hebb",11,672096,"0.0-3.0-8.0","0rbz3087c78n",9766,"Code Owmi cracks the firewall of company Eshbu.","Owmi","cracks sth. of",13416,3,"cracks sth. of","Owmi","Eshbu","Eshbu","2",9,TRUE,TRUE,TRUE,"analog",0,1,16,15,9.18676463544748,9.50427783859047,"hacker2","none","none","none","morning","2016-05-03",0,5
"842","hacker","Evib,Owmi,Eshbu,Pishi,Irov,Lenik","hebb",11,672096,"0.0-3.0-8.0","0rbz3087c78n",5121,"Company Eshbu suffers a data loss.","Eshbu","catches sth. of",46600,5,"suffers sth.","Eshbu",NA,NA,"3",9,TRUE,NA,FALSE,"analog",0,0.5,16,15,8.54130026675947,10.749377279111,"hacker3","order-grasyn","none",NA,"morning","2016-05-03",0,5
"85","mining","Upno,Assit,Enmob,Roze,Wutoc,Lyde","hebb",12,774732,"0.0-3.0-9.0","0rbz3087c78n",11448,"Mining company Upno has a lot of resource Assit.","Upno","has a lot of",14237,3,"has a lot of","Upno","Assit","Assit","1",10,TRUE,TRUE,TRUE,"filler",0,1,16,15,9.34565766892381,9.56366972566382,"mining1","none","none","none","morning","2016-05-03",0,5
"851","mining","Upno,Assit,Enmob,Roze,Wutoc,Lyde","hebb",12,774732,"0.0-3.0-9.0","0rbz3087c78n",11953,"Resource Assit is sparse in country Enmob.","Assit","starts trading",50689,3,"is sparse in","Assit","Enmob","Enmob","2",10,TRUE,TRUE,FALSE,"filler",0,0.666666666666667,16,15,9.3888212293842,10.8334839314664,"mining2","order-grasyn","none","none","morning","2016-05-03",0,5
"852","mining","Upno,Assit,Enmob,Roze,Wutoc,Lyde","hebb",12,774732,"0.0-3.0-9.0","0rbz3087c78n",6054,"Country Enmob starts negotiating.","Enmob","starts negotiating",6742,2,"starts negotiating","Enmob",NA,NA,"3",10,TRUE,NA,TRUE,"filler",0,1,16,15,8.70863965598719,8.81626020873458,"mining3","none","none",NA,"morning","2016-05-03",0,5
"87","crusader","Wehif,Dohod,Igoth,Ifeh,Wecin,Afi","hebb",14,860816,"0.0-3.0-11.0","0rbz3087c78n",11408,"Crusader group Wehif bought weapon Dohod.","Wehif","bought",10392,3,"bought","Wehif","Dohod","Dohod","1",12,TRUE,TRUE,TRUE,"analog",0,1,16,15,9.34215779659637,9.24888778158842,"crusader1","none","none","none","morning","2016-05-03",0,6
"871","crusader","Wehif,Dohod,Igoth,Ifeh,Wecin,Afi","hebb",14,860816,"0.0-3.0-11.0","0rbz3087c78n",12088,"Weapon Dohod breaches the fortification of town Igoth.","Dohod","breaches sth. of",18208,3,"breaches sth. of","Dohod","Igoth","Igoth","2",12,TRUE,TRUE,TRUE,"analog",0,1,16,15,9.40005122720199,9.80967125633184,"crusader2","none","none","none","morning","2016-05-03",0,6
"872","crusader","Wehif,Dohod,Igoth,Ifeh,Wecin,Afi","hebb",14,860816,"0.0-3.0-11.0","0rbz3087c78n",6374,"Town Igoth is invaded.","Igoth","is invaded",14096,2,"is invaded","Igoth",NA,NA,"3",12,TRUE,NA,TRUE,"analog",0,1,16,15,8.76013937002663,9.55371728777093,"crusader3","none","none",NA,"morning","2016-05-03",0,6
"88","meteo","Gena,Hoyl,Fozeh,Hoap,Ofes,Kawud","hebb",15,929203,"0.0-3.0-12.0","0rbz3087c78n",10456,"Cloud Gena collects humidity over ocean Hoyl.","Gena","collects humidity over",12816,3,"collects humidity over","Gena","Hoyl","Hoyl","1",13,TRUE,TRUE,TRUE,"filler",0,1,16,15,9.25502688959859,9.45852769372982,"meteo1","none","none","none","morning","2016-05-03",0,6
"881","meteo","Gena,Hoyl,Fozeh,Hoap,Ofes,Kawud","hebb",15,929203,"0.0-3.0-12.0","0rbz3087c78n",8367,"Ocean Hoyl lies next to the beaches of area Fozeh.","Hoyl","lies next to",21495,3,"lies next to","Hoyl","Fozeh","Fozeh","2",13,TRUE,TRUE,TRUE,"filler",0,1,16,15,9.0321701863047,9.97562215029533,"meteo2","none","none","none","morning","2016-05-03",0,6
"882","meteo","Gena,Hoyl,Fozeh,Hoap,Ofes,Kawud","hebb",15,929203,"0.0-3.0-12.0","0rbz3087c78n",6471,"Area Fozeh is fertile.","Fozeh","is fertile",7270,2,"is fertile","Fozeh",NA,NA,"3",13,TRUE,NA,TRUE,"filler",0,1,16,15,8.77524045873833,8.89164911265006,"meteo3","none","none",NA,"morning","2016-05-03",0,6
"89","espionage","Uvman,Enwi,Eyem,Olef,Titho,Paza","hebb",16,1039597,"0.0-3.0-13.0","0rbz3087c78n",8523,"Country Uvman trains spy Enwi.","Uvman","is hired by sth. of",29711,3,"trains","Uvman","Eyem","Enwi","1",14,TRUE,FALSE,FALSE,"analog",0,0.333333333333333,16,15,9.05064099321851,10.2993062835925,"espionage1","order","none","inter-stat","morning","2016-05-03",0,7
"891","espionage","Uvman,Enwi,Eyem,Olef,Titho,Paza","hebb",16,1039597,"0.0-3.0-13.0","0rbz3087c78n",6523,"Spy Enwi is hired by Intelligence Agency of country Eyem.","Eyem","is hired by sth. of",41326,3,"is hired by sth. of","Enwi","Enwi","Eyem","2",14,FALSE,FALSE,TRUE,"analog",0,0.333333333333333,16,15,8.78324296374091,10.6292713183723,"espionage2","none","intra-stat","intra-stat","morning","2016-05-03",0,7
"892","espionage","Uvman,Enwi,Eyem,Olef,Titho,Paza","hebb",16,1039597,"0.0-3.0-13.0","0rbz3087c78n",4693,"Country Eyem has its secrets stolen.","Eyem","has sth. stolen",18106,2,"has sth. stolen","Eyem",NA,NA,"3",14,TRUE,NA,TRUE,"analog",0,1,16,15,8.45404037641097,9.80405388282064,"espionage3","none","none",NA,"morning","2016-05-03",0,7
"90","insect","Potho,Saly,Hosen,Ubug,Upel,Rove","hebb",17,1112745,"0.0-3.0-14.0","0rbz3087c78n",13356,"Perfume Potho attracts insect Saly.","Potho","attracts",25607,3,"attracts","Potho","Saly","Saly","1",15,TRUE,TRUE,TRUE,"filler",0,1,16,15,9.49979587097711,10.1506600816497,"insect1","none","none","none","morning","2016-05-03",0,7
"901","insect","Potho,Saly,Hosen,Ubug,Upel,Rove","hebb",17,1112745,"0.0-3.0-14.0","0rbz3087c78n",6093,"Insect Saly attacks woman Hosen.","Saly","attracts",13574,3,"attacks","Saly","Hosen","Hosen","2",15,TRUE,TRUE,FALSE,"filler",0,0.666666666666667,16,15,8.71505995954565,9.51598514480214,"insect2","order","none","none","morning","2016-05-03",0,7
"902","insect","Potho,Saly,Hosen,Ubug,Upel,Rove","hebb",17,1112745,"0.0-3.0-14.0","0rbz3087c78n",6800,"Woman Hosen has an allergic reaction.","Hosen","has an allergic reaction",6207,2,"has an allergic reaction","Hosen",NA,NA,"3",15,TRUE,NA,TRUE,"filler",0,1,16,15,8.82482493917564,8.73359406186306,"insect3","none","none",NA,"morning","2016-05-03",0,7
"911","fish","Mabi,Ezol,Huluw,Fozeh,Eshov,Zimob","hebb",3,81238,"0.0-3.0-0.0","0wwbq479u33r",24983,"Fisher Mabi cultivates sea grass Ezol.","Zimob","is eaten by",13726,3,"cultivates","Mabi","Ezol","Ezol","1",1,FALSE,TRUE,FALSE,"filler",1,0.333333333333333,14,22,10.1259908989629,9.52711997525166,"fish1","order","other","none","afternoon","2016-05-13",1,1
"912","fish","Mabi,Ezol,Huluw,Fozeh,Eshov,Zimob","hebb",3,81238,"0.0-3.0-0.0","0wwbq479u33r",1008,"Sea grass Ezol is eaten by fish Huluw.","Zimob","is captured",9154,3,"is eaten by","Ezol","Fozeh","Huluw","2",1,FALSE,FALSE,FALSE,"filler",1,0,14,22,6.91671502035361,9.12205545710861,"fish2","order","other","other","afternoon","2016-05-13",1,1
"913","fish","Mabi,Ezol,Huluw,Fozeh,Eshov,Zimob","hebb",3,81238,"0.0-3.0-0.0","0wwbq479u33r",656,"Fish Huluw is captured.","Mabi","is captured",7433,2,"is captured","Huluw",NA,NA,"3",1,FALSE,NA,TRUE,"filler",1,0.5,14,22,6.48768401848461,8.9138193508572,"fish3","none","inter-stat",NA,"afternoon","2016-05-13",1,1
"921","robber","Hoyl,Owih,Molash,Aid,Orok,Gelyp","hebb",4,178220,"0.0-3.0-1.0","0wwbq479u33r",62294,"Criminal Hoyl learns about security issue Owih.","Hoyl","learns about",9308,3,"learns about","Hoyl","Gelyp","Owih","1",2,TRUE,FALSE,TRUE,"analog",0,0.666666666666667,14,22,11.039636444733,9.13873695311649,"robber1","none","none","other","afternoon","2016-05-13",1,1
"922","robber","Hoyl,Owih,Molash,Aid,Orok,Gelyp","hebb",4,178220,"0.0-3.0-1.0","0wwbq479u33r",4016,"Security issue Owih suspends alarm system of museum Molash.","Orok","gets robbed",12343,5,"suspends sth. of","Owih","Hoyl","Molash","2",2,FALSE,FALSE,FALSE,"analog",0,0,14,22,8.29829063435928,9.420925394043,"robber2","order","other","inter-stat","afternoon","2016-05-13",1,1
"923","robber","Hoyl,Owih,Molash,Aid,Orok,Gelyp","hebb",4,178220,"0.0-3.0-1.0","0wwbq479u33r",608,"Museum Molash gets robbed.","Molash","gets robbed",6909,2,"gets robbed","Molash",NA,NA,"3",2,TRUE,NA,TRUE,"analog",0,1,14,22,6.4118182677099,8.84072491676172,"robber3","none","none",NA,"afternoon","2016-05-13",1,1
"93","employee","Wutoc,Turow,Eefar,Irov,Ottha,Awiz","hebb",5,216488,"0.0-3.0-2.0","0wwbq479u33r",2945,"Employee Wutoc is assigned to project Turow.","Wutoc","is assigned to",10866,3,"is assigned to","Wutoc","Turow","Turow","1",3,TRUE,TRUE,TRUE,"filler",0,1,14,22,7.98820359702258,9.29348595306285,"employee1","none","none","none","afternoon","2016-05-13",1,2
"931","employee","Wutoc,Turow,Eefar,Irov,Ottha,Awiz","hebb",5,216488,"0.0-3.0-2.0","0wwbq479u33r",3616,"Project Turow supports agenda of manager Eefar.","Turow","gets an advancement",8945,3,"supports sth. of","Turow","Eefar","Eefar","2",3,TRUE,TRUE,FALSE,"filler",0,0.666666666666667,14,22,8.1934002319521,9.09896178399279,"employee2","order-syno","none","none","afternoon","2016-05-13",1,2
"932","employee","Wutoc,Turow,Eefar,Irov,Ottha,Awiz","hebb",5,216488,"0.0-3.0-2.0","0wwbq479u33r",1160,"Manager Eefar gets a promotion.","Eefar","gets a bonus",9234,3,"gets a promotion","Eefar",NA,NA,"3",3,TRUE,NA,FALSE,"filler",0,0.5,14,22,7.05703698169789,9.13075589263334,"employee3","grasyn","none",NA,"afternoon","2016-05-13",1,2
"94","lawyer","Ofpoz,Enmob,Idog,Erok,Atmag,Lenik","hebb",6,263192,"0.0-3.0-3.0","0wwbq479u33r",7493,"Lawyer Ofpoz finds loophole Enmob.","Idog","bypasses sth. of",14299,4,"finds","Ofpoz","Enmob","Enmob","1",4,FALSE,TRUE,FALSE,"analog",0,0.333333333333333,14,22,8.92185797935363,9.568014816248,"lawyer1","order","inter-stat","none","afternoon","2016-05-13",1,2
"941","lawyer","Ofpoz,Enmob,Idog,Erok,Atmag,Lenik","hebb",6,263192,"0.0-3.0-3.0","0wwbq479u33r",2128,"Loophole Enmob bypasses contract of union Idog.","Ofpoz","meets",13700,5,"bypasses sth. of","Enmob","Enmob","Idog","2",4,FALSE,FALSE,FALSE,"analog",0,0,14,22,7.66340766489348,9.52522410185311,"lawyer2","order-grasyn","inter-stat","intra-stat","afternoon","2016-05-13",1,2
"942","lawyer","Ofpoz,Enmob,Idog,Erok,Atmag,Lenik","hebb",6,263192,"0.0-3.0-3.0","0wwbq479u33r",1624,"Union Idog loses a lawsuit.","Enmob","detects",5957,2,"loses sth.","Idog",NA,NA,"3",4,FALSE,NA,FALSE,"analog",0,0,14,22,7.39326309476384,8.69249013327323,"lawyer3","order-syno","inter-stat",NA,"afternoon","2016-05-13",1,2
"95","school","Eshbu,Hize,Thuha,Evib,Thyra,Rothuk","hebb",7,295858,"0.0-3.0-4.0","0wwbq479u33r",5332,"School girl Eshbu hits boy Hize.","Eshbu","hits",10268,4,"hits","Eshbu","Hize","Hize","1",5,TRUE,TRUE,TRUE,"filler",0,1,14,22,8.5816692106006,9.23688492719829,"school1","none","none","none","afternoon","2016-05-13",1,3
"951","school","Eshbu,Hize,Thuha,Evib,Thyra,Rothuk","hebb",7,295858,"0.0-3.0-4.0","0wwbq479u33r",2928,"Boy Hize reports to teacher Thuha.","Hize","reports to",6364,3,"reports to","Hize","Thuha","Thuha","2",5,TRUE,TRUE,TRUE,"filler",0,1,14,22,7.98241634682773,8.75856951099151,"school2","none","none","none","afternoon","2016-05-13",1,3
"952","school","Eshbu,Hize,Thuha,Evib,Thyra,Rothuk","hebb",7,295858,"0.0-3.0-4.0","0wwbq479u33r",920,"Teacher Thuha calls parents.","Thuha","notifies parents",5351,2,"calls parents","Thuha",NA,NA,"3",5,TRUE,NA,FALSE,"filler",0,0.5,14,22,6.82546003625531,8.58522560180806,"school3","syno","none",NA,"afternoon","2016-05-13",1,3
"96","espionage","Enwi,Afik,Kawud,Uvman,Ewey,Saly","hebb",8,331480,"0.0-3.0-5.0","0wwbq479u33r",4202,"Country Enwi trains spy Afik.","Enwi","trains",8427,3,"trains","Enwi","Afik","Afik","1",6,TRUE,TRUE,TRUE,"analog",0,1,14,22,8.34355383500512,9.03931477492408,"espionage1","none","none","none","afternoon","2016-05-13",1,3
"961","espionage","Enwi,Afik,Kawud,Uvman,Ewey,Saly","hebb",8,331480,"0.0-3.0-5.0","0wwbq479u33r",3040,"Spy Afik is hired by Intelligence Agency of country Kawud.","Afik","is hired by sth. of",9898,3,"is hired by sth. of","Afik","Enwi","Kawud","2",6,TRUE,FALSE,TRUE,"analog",0,0.666666666666667,14,22,8.01994168767737,9.20018902091981,"espionage2","none","none","inter-stat","afternoon","2016-05-13",1,3
"962","espionage","Enwi,Afik,Kawud,Uvman,Ewey,Saly","hebb",8,331480,"0.0-3.0-5.0","0wwbq479u33r",776,"Country Kawud has its secrets stolen.","Enwi","instructs",7777,2,"has sth. stolen","Kawud",NA,NA,"3",6,FALSE,NA,FALSE,"analog",0,0,14,22,6.65544035036765,8.95905451471569,"espionage3","order-syno","inter-stat",NA,"afternoon","2016-05-13",1,3
"97","meteo","Epnux,Gabit,Goxos,Ribi,Pishi,Gena","hebb",9,360374,"0.0-3.0-6.0","0wwbq479u33r",1044,"Cloud Epnux collects humidity over ocean Gabit.","Gabit","lies next to",8996,3,"collects humidity over","Epnux","Goxos","Gabit","1",7,FALSE,FALSE,FALSE,"filler",0,0,14,22,6.95177216439891,9.10464646741712,"meteo1","order","intra-stat","inter-stat","afternoon","2016-05-13",1,4
"971","meteo","Epnux,Gabit,Goxos,Ribi,Pishi,Gena","hebb",9,360374,"0.0-3.0-6.0","0wwbq479u33r",1912,"Ocean Gabit lies next to the beaches of area Goxos.","Epnux","lies above",9267,3,"lies next to","Gabit","Goxos","Goxos","2",7,FALSE,TRUE,FALSE,"filler",0,0.333333333333333,14,22,7.55642796944025,9.13432288555227,"meteo2","grasyn","inter-stat","none","afternoon","2016-05-13",1,4
"972","meteo","Epnux,Gabit,Goxos,Ribi,Pishi,Gena","hebb",9,360374,"0.0-3.0-6.0","0wwbq479u33r",744,"Area Goxos is fertile.","Goxos","is rich",5427,2,"is fertile","Goxos",NA,NA,"3",7,TRUE,NA,FALSE,"filler",0,0.5,14,22,6.61338421837956,8.59932602095476,"meteo3","grasyn","none",NA,"afternoon","2016-05-13",1,4
"98","crusader","Paza,Pide,Wecin,Igoth,Mawi,Owmi","hebb",10,397166,"0.0-3.0-7.0","0wwbq479u33r",4442,"Crusader group Paza bought weapon Pide.","Paza","is invaded",10853,3,"bought","Paza","Pide","Pide","1",8,TRUE,TRUE,FALSE,"analog",0,0.666666666666667,14,22,8.39908510293591,9.29228895462335,"crusader1","order","none","none","afternoon","2016-05-13",1,4
"981","crusader","Paza,Pide,Wecin,Igoth,Mawi,Owmi","hebb",10,397166,"0.0-3.0-7.0","0wwbq479u33r",2328,"Weapon Pide breaches the fortification of town Wecin.","Paza","acquired",6918,3,"breaches sth. of","Pide","Pide","Wecin","2",8,FALSE,FALSE,FALSE,"analog",0,0,14,22,7.75319426988434,8.84202652949881,"crusader2","order-syno","inter-stat","intra-stat","afternoon","2016-05-13",1,4
"982","crusader","Paza,Pide,Wecin,Igoth,Mawi,Owmi","hebb",10,397166,"0.0-3.0-7.0","0wwbq479u33r",1088,"Town Wecin is invaded.","Pide","is invaded",9656,4,"is invaded","Wecin",NA,NA,"3",8,FALSE,NA,TRUE,"analog",0,0.5,14,22,6.99301512293296,9.17543831996692,"crusader3","none","inter-stat",NA,"afternoon","2016-05-13",1,4
"99","insect","Lothe,Yoges,Ifeh,Thygef,Rove,Upno","hebb",11,431203,"0.0-3.0-8.0","0wwbq479u33r",3509,"Perfume Lothe attracts insect Yoges.","Rove","attacks",12435,4,"attracts","Lothe","Upno","Yoges","1",9,FALSE,FALSE,FALSE,"filler",0,0,14,22,8.16337131645991,9.42835077117864,"insect1","order","other","other","afternoon","2016-05-13",1,5
"991","insect","Lothe,Yoges,Ifeh,Thygef,Rove,Upno","hebb",11,431203,"0.0-3.0-8.0","0wwbq479u33r",2128,"Insect Yoges attacks woman Ifeh.","Lothe","attracts",7843,3,"attacks","Yoges","Upno","Ifeh","2",9,FALSE,FALSE,FALSE,"filler",0,0,14,22,7.66340766489348,8.96750418731624,"insect2","order","inter-stat","other","afternoon","2016-05-13",1,5
"992","insect","Lothe,Yoges,Ifeh,Thygef,Rove,Upno","hebb",11,431203,"0.0-3.0-8.0","0wwbq479u33r",1272,"Woman Ifeh has an allergic reaction.","Upno","attracts",5346,2,"has an allergic reaction","Ifeh",NA,NA,"3",9,FALSE,NA,FALSE,"filler",0,0,14,22,7.14913159855741,8.58429093494873,"insect3","order","other",NA,"afternoon","2016-05-13",1,5
"100","bacteria","Itbob,Inag,Felac,Hadith,Olef,Kewos","hebb",12,461929,"0.0-3.0-9.0","0wwbq479u33r",3530,"Bacteria Itbob emits enzyme Inag.","Itbob","injects",9953,3,"emits","Itbob","Inag","Inag","1",10,TRUE,TRUE,FALSE,"analog",0,0.666666666666667,14,22,8.16933639592839,9.2057297594185,"bacteria1","grasyn","none","none","afternoon","2016-05-13",1,5
"1001","bacteria","Itbob,Inag,Felac,Hadith,Olef,Kewos","hebb",12,461929,"0.0-3.0-9.0","0wwbq479u33r",1704,"Enzyme Inag dissolves the membrane of organ Felac.","Inag","injects",8744,3,"dissolves sth. of","Inag","Felac","Felac","2",10,TRUE,TRUE,FALSE,"analog",0,0.666666666666667,14,22,7.44132038971762,9.0762373874527,"bacteria2","order-grasyn","none","none","afternoon","2016-05-13",1,5
"1002","bacteria","Itbob,Inag,Felac,Hadith,Olef,Kewos","hebb",12,461929,"0.0-3.0-9.0","0wwbq479u33r",936,"Organ Felac fails.","Felac","dies",4357,2,"fails","Felac",NA,NA,"3",10,TRUE,NA,FALSE,"analog",0,0.5,14,22,6.84268328223842,8.37976851550457,"bacteria3","syno","none",NA,"afternoon","2016-05-13",1,5
"1021","mining","Afi,Ihab,Ofes,Vivaf,Mewep,Uwit","hebb",14,504758,"0.0-3.0-11.0","0wwbq479u33r",3576,"Mining company Afi has a lot of resource Ihab.","Afi","starts negotiating",8529,3,"has a lot of","Afi","Ihab","Ihab","1",12,TRUE,TRUE,FALSE,"filler",0,0.666666666666667,14,22,8.18227973925902,9.05134464048573,"mining1","order","none","none","afternoon","2016-05-13",1,6
"1022","mining","Afi,Ihab,Ofes,Vivaf,Mewep,Uwit","hebb",14,504758,"0.0-3.0-11.0","0wwbq479u33r",1616,"Resource Ihab is sparse in country Ofes.","Ihab","starts negotiating",6585,3,"is sparse in","Ihab","Ofes","Ofes","2",12,TRUE,TRUE,FALSE,"filler",0,0.666666666666667,14,22,7.38832785957711,8.79270146293631,"mining2","order","none","none","afternoon","2016-05-13",1,6
"1023","mining","Afi,Ihab,Ofes,Vivaf,Mewep,Uwit","hebb",14,504758,"0.0-3.0-11.0","0wwbq479u33r",808,"Country Ofes starts negotiating.","Ofes","starts trading",5745,2,"starts negotiating","Ofes",NA,NA,"3",12,TRUE,NA,FALSE,"filler",0,0.5,14,22,6.69579891705849,8.65625923953924,"mining3","grasyn","none",NA,"afternoon","2016-05-13",1,6
"103","fox","Ilres,Hoap,Puvi,Vuloz,Assit,Eyem","hebb",15,539489,"0.0-3.0-12.0","0wwbq479u33r",3727,"Fox Ilres digs tunnel Hoap.","Ilres","is devoured",14588,3,"digs","Ilres","Hoap","Hoap","1",13,TRUE,TRUE,FALSE,"analog",0,0.666666666666667,14,22,8.22362717580548,9.5880230990719,"fox1","order","none","none","afternoon","2016-05-13",1,6
"1031","fox","Ilres,Hoap,Puvi,Vuloz,Assit,Eyem","hebb",15,539489,"0.0-3.0-12.0","0wwbq479u33r",1296,"Tunnel Hoap leads to coop of chicken Puvi.","Hoap","wants",7526,3,"leads to sth. of","Hoap","Puvi","Puvi","2",13,TRUE,TRUE,FALSE,"analog",0,0.666666666666667,14,22,7.16780918431644,8.92625183503453,"fox2","order-grasyn","none","none","afternoon","2016-05-13",1,6
"1032","fox","Ilres,Hoap,Puvi,Vuloz,Assit,Eyem","hebb",15,539489,"0.0-3.0-12.0","0wwbq479u33r",800,"Chicken Puvi is devoured.","Puvi","is eaten",5293,2,"is devoured","Puvi",NA,NA,"3",13,TRUE,NA,FALSE,"analog",0,0.5,14,22,6.68586094706836,8.57432938278705,"fox3","syno","none",NA,"afternoon","2016-05-13",1,6
"104","farm","Ebib,Hosen,Ohuy,Titho,Meuf,Roze","hebb",16,565862,"0.0-3.0-13.0","0wwbq479u33r",2050,"Farmer Ebib bought machine Hosen.","Ebib","bought",7321,3,"bought","Ebib","Hosen","Hosen","1",14,TRUE,TRUE,TRUE,"filler",0,1,14,22,7.62608275807238,8.89863879368018,"farm1","none","none","none","afternoon","2016-05-13",1,7
"1041","farm","Ebib,Hosen,Ohuy,Titho,Meuf,Roze","hebb",16,565862,"0.0-3.0-13.0","0wwbq479u33r",792,"Machine Hosen can collect fruit of plant Ohuy.","Hosen","bought",7175,3,"can collect","Hosen","Ohuy","Ohuy","2",14,TRUE,TRUE,FALSE,"filler",0,0.666666666666667,14,22,6.67582322163485,8.87849740373863,"farm2","order","none","none","afternoon","2016-05-13",1,7
"1042","farm","Ebib,Hosen,Ohuy,Titho,Meuf,Roze","hebb",16,565862,"0.0-3.0-13.0","0wwbq479u33r",792,"Plant Ohuy are harvested automatically.","Ohuy","purchased",6740,2,"are harvested automatically","Ohuy",NA,NA,"3",14,TRUE,NA,FALSE,"filler",0,0.5,14,22,6.67582322163485,8.81596356085344,"farm3","order-syno","none",NA,"afternoon","2016-05-13",1,7
"105","hacker","Afid,Thisun,Yuxeh,Ubug,Dohod,Upel","hebb",17,594928,"0.0-3.0-14.0","0wwbq479u33r",3216,"Hacker Afid wrote computer code Thisun.","Afid","invented",7302,3,"wrote","Afid","Thisun","Thisun","1",15,TRUE,TRUE,FALSE,"analog",0,0.666666666666667,14,22,8.07620452723903,8.89604050162011,"hacker1","syno","none","none","afternoon","2016-05-13",1,7
"1051","hacker","Afid,Thisun,Yuxeh,Ubug,Dohod,Upel","hebb",17,594928,"0.0-3.0-14.0","0wwbq479u33r",1320,"Code Thisun cracks the firewall of company Yuxeh.","Thisun","catches sth. of",7358,3,"cracks sth. of","Thisun","Yuxeh","Yuxeh","2",15,TRUE,TRUE,FALSE,"analog",0,0.666666666666667,14,22,7.18614430452233,8.9036793329266,"hacker2","grasyn","none","none","afternoon","2016-05-13",1,7
"1052","hacker","Afid,Thisun,Yuxeh,Ubug,Dohod,Upel","hebb",17,594928,"0.0-3.0-14.0","0wwbq479u33r",645,"Company Yuxeh suffers a data loss.","Yuxeh","cracks sth. of",7720,2,"suffers sth.","Yuxeh",NA,NA,"3",15,TRUE,NA,FALSE,"analog",0,0.5,14,22,6.4707995037826,8.95169916830882,"hacker3","order","none",NA,"afternoon","2016-05-13",1,7
"106","hacker","Wehif,Lothe,Saly,Fozeh,Hosen,Rove","hebb",3,236305,"0.0-3.0-0.0","2cmwyuhgpdyl",14715,"Hacker Wehif wrote computer code Lothe.","Wehif","wrote",17899,3,"wrote","Wehif","Lothe","Lothe","1",1,TRUE,TRUE,TRUE,"analog",1,1,9,18,9.59669061622466,9.79255599182885,"hacker1","none","none","none","morning","2016-05-03",0,1
"1061","hacker","Wehif,Lothe,Saly,Fozeh,Hosen,Rove","hebb",3,236305,"0.0-3.0-0.0","2cmwyuhgpdyl",12591,"Code Lothe cracks the firewall of company Saly.","Lothe","cracks sth. of",15932,3,"cracks sth. of","Lothe","Saly","Saly","2",1,TRUE,TRUE,TRUE,"analog",1,1,9,18,9.44081697065718,9.67614770909051,"hacker2","none","none","none","morning","2016-05-03",0,1
"1062","hacker","Wehif,Lothe,Saly,Fozeh,Hosen,Rove","hebb",3,236305,"0.0-3.0-0.0","2cmwyuhgpdyl",7762,"Company Saly suffers a data loss.","Saly","suffers sth.",17870,2,"suffers sth.","Saly",NA,NA,"3",1,TRUE,NA,TRUE,"analog",1,1,9,18,8.95712413640568,9.7909345662968,"hacker3","none","none",NA,"morning","2016-05-03",0,1
"107","school","Titho,Vivaf,Pishi,Enwi,Afik,Ubug","hebb",4,300305,"0.0-3.0-1.0","2cmwyuhgpdyl",11578,"School girl Titho hits boy Vivaf.","Titho","hits",10583,3,"hits","Titho","Vivaf","Vivaf","1",2,TRUE,TRUE,TRUE,"filler",0,1,9,18,9.35694839161227,9.26709870579479,"school1","none","none","none","morning","2016-05-03",0,1
"1071","school","Titho,Vivaf,Pishi,Enwi,Afik,Ubug","hebb",4,300305,"0.0-3.0-1.0","2cmwyuhgpdyl",9868,"Boy Vivaf reports to teacher Pishi.","Vivaf","reports to",11594,3,"reports to","Vivaf","Pishi","Pishi","2",2,TRUE,TRUE,TRUE,"filler",0,1,9,18,9.19715381017201,9.35832924968963,"school2","none","none","none","morning","2016-05-03",0,1
"1072","school","Titho,Vivaf,Pishi,Enwi,Afik,Ubug","hebb",4,300305,"0.0-3.0-1.0","2cmwyuhgpdyl",7686,"Teacher Pishi calls parents.","Pishi","calls parents",11176,2,"calls parents","Pishi",NA,NA,"3",2,TRUE,NA,TRUE,"filler",0,1,9,18,8.94728586934913,9.32161337438561,"school3","none","none",NA,"morning","2016-05-03",0,1
"108","crusader","Zimob,Atmag,Dohod,Lenik,Upno,Ofpoz","hebb",5,373936,"0.0-3.0-2.0","2cmwyuhgpdyl",14106,"Crusader group Zimob bought weapon Atmag.","Zimob","bought",10848,3,"bought","Zimob","Atmag","Atmag","1",3,TRUE,TRUE,TRUE,"analog",0,1,9,18,9.5544264070745,9.29182818882245,"crusader1","none","none","none","morning","2016-05-03",0,2
"1081","crusader","Zimob,Atmag,Dohod,Lenik,Upno,Ofpoz","hebb",5,373936,"0.0-3.0-2.0","2cmwyuhgpdyl",12496,"Weapon Atmag breaches the fortification of town Dohod.","Atmag","breaches sth. of",11325,3,"breaches sth. of","Atmag","Dohod","Dohod","2",3,TRUE,TRUE,TRUE,"analog",0,1,9,18,9.43324389448578,9.33485624667375,"crusader2","none","none","none","morning","2016-05-03",0,2
"1082","crusader","Zimob,Atmag,Dohod,Lenik,Upno,Ofpoz","hebb",5,373936,"0.0-3.0-2.0","2cmwyuhgpdyl",10160,"Town Dohod is invaded.","Dohod","is invaded",13191,2,"is invaded","Dohod",NA,NA,"3",3,TRUE,NA,TRUE,"analog",0,1,9,18,9.22631214148588,9.48736586423943,"crusader3","none","none",NA,"morning","2016-05-03",0,2
"109","meteo","Enmob,Eshbu,Itbob,Mabi,Pide,Vilux","hebb",6,448872,"0.0-3.0-3.0","2cmwyuhgpdyl",13020,"Cloud Enmob collects humidity over ocean Eshbu.","Enmob","collects humidity over",11327,3,"collects humidity over","Enmob","Eshbu","Eshbu","1",4,TRUE,TRUE,TRUE,"filler",0,1,9,18,9.47431871772873,9.3350328159335,"meteo1","none","none","none","morning","2016-05-03",0,2
"1091","meteo","Enmob,Eshbu,Itbob,Mabi,Pide,Vilux","hebb",6,448872,"0.0-3.0-3.0","2cmwyuhgpdyl",11446,"Ocean Eshbu lies next to the beaches of area Itbob.","Eshbu","lies next to",15920,3,"lies next to","Eshbu","Itbob","Itbob","2",4,TRUE,TRUE,TRUE,"filler",0,1,9,18,9.34548296591848,9.67539427149601,"meteo2","none","none","none","morning","2016-05-03",0,2
"1092","meteo","Enmob,Eshbu,Itbob,Mabi,Pide,Vilux","hebb",6,448872,"0.0-3.0-3.0","2cmwyuhgpdyl",9898,"Area Itbob is fertile.","Itbob","is fertile",11808,2,"is fertile","Itbob",NA,NA,"3",4,TRUE,NA,TRUE,"filler",0,1,9,18,9.20018902091981,9.37661723160128,"meteo3","none","none",NA,"morning","2016-05-03",0,2
"110","fox","Meuf,Gabit,Avyth,Epnux,Turow,Felac","hebb",7,508989,"0.0-3.0-4.0","2cmwyuhgpdyl",11041,"Fox Meuf digs tunnel Gabit.","Meuf","digs",17375,4,"digs","Meuf","Gabit","Gabit","1",5,TRUE,TRUE,TRUE,"analog",0,1,9,18,9.30946146284399,9.76284522273366,"fox1","none","none","none","morning","2016-05-03",0,3
"1101","fox","Meuf,Gabit,Avyth,Epnux,Turow,Felac","hebb",7,508989,"0.0-3.0-4.0","2cmwyuhgpdyl",8080,"Tunnel Gabit leads to coop of chicken Avyth.","Gabit","leads to sth. of",9372,3,"leads to sth. of","Gabit","Avyth","Avyth","2",5,TRUE,TRUE,TRUE,"analog",0,1,9,18,8.99727090623345,9.14558849474649,"fox2","none","none","none","morning","2016-05-03",0,3
"1102","fox","Meuf,Gabit,Avyth,Epnux,Turow,Felac","hebb",7,508989,"0.0-3.0-4.0","2cmwyuhgpdyl",5439,"Chicken Avyth is devoured.","Avyth","is devoured",7307,2,"is devoured","Avyth",NA,NA,"3",5,TRUE,NA,TRUE,"analog",0,1,9,18,8.60153433984999,8.8967249174979,"fox3","none","none",NA,"morning","2016-05-03",0,3
"111","farm","Ahow,Hoyl,Yuxeh,Irov,Yoges,Owih","hebb",8,568286,"0.0-3.0-5.0","2cmwyuhgpdyl",9066,"Farmer Ahow bought machine Hoyl.","Ahow","bought",12049,3,"bought","Ahow","Hoyl","Hoyl","1",6,TRUE,TRUE,TRUE,"filler",0,1,9,18,9.11239672764606,9.3968199389188,"farm1","none","none","none","morning","2016-05-03",0,3
"1111","farm","Ahow,Hoyl,Yuxeh,Irov,Yoges,Owih","hebb",8,568286,"0.0-3.0-5.0","2cmwyuhgpdyl",4336,"Machine Hoyl can collect fruit of plant Yuxeh.","Hoyl","bought",18645,3,"can collect","Hoyl","Yuxeh","Yuxeh","2",6,TRUE,TRUE,FALSE,"filler",0,0.666666666666667,9,18,8.37493814383537,9.83338692485664,"farm2","order","none","none","morning","2016-05-03",0,3
"1112","farm","Ahow,Hoyl,Yuxeh,Irov,Yoges,Owih","hebb",8,568286,"0.0-3.0-5.0","2cmwyuhgpdyl",7470,"Plant Yuxeh are harvested automatically.","Yuxeh","are harvested automatically",6224,2,"are harvested automatically","Yuxeh",NA,NA,"3",6,TRUE,NA,TRUE,"filler",0,1,9,18,8.9187841379758,8.73632872133291,"farm3","none","none",NA,"morning","2016-05-03",0,3
"112","espionage","Thuha,Wutoc,Ohuy,Napib,Ezol,Rothuk","hebb",9,636285,"0.0-3.0-6.0","2cmwyuhgpdyl",10680,"Country Thuha trains spy Wutoc.","Thuha","trains",11869,3,"trains","Thuha","Wutoc","Wutoc","1",7,TRUE,TRUE,TRUE,"analog",0,1,9,18,9.2762217410897,9.38176948760371,"espionage1","none","none","none","morning","2016-05-03",0,4
"1121","espionage","Thuha,Wutoc,Ohuy,Napib,Ezol,Rothuk","hebb",9,636285,"0.0-3.0-6.0","2cmwyuhgpdyl",7745,"Spy Wutoc is hired by Intelligence Agency of country Ohuy.","Wutoc","is hired by sth. of",12152,3,"is hired by sth. of","Wutoc","Ohuy","Ohuy","2",7,TRUE,TRUE,TRUE,"analog",0,1,9,18,8.9549318600747,9.4053313318708,"espionage2","none","none","none","morning","2016-05-03",0,4
"1122","espionage","Thuha,Wutoc,Ohuy,Napib,Ezol,Rothuk","hebb",9,636285,"0.0-3.0-6.0","2cmwyuhgpdyl",6968,"Country Ohuy has its secrets stolen.","Ohuy","has sth. stolen",17069,2,"has sth. stolen","Ohuy",NA,NA,"3",7,TRUE,NA,TRUE,"analog",0,1,9,18,8.84922702143852,9.74507781578849,"espionage3","none","none",NA,"morning","2016-05-03",0,4
"113","employee","Igoth,Erok,Ebib,Assit,Upum,Lyde","hebb",10,699012,"0.0-3.0-7.0","2cmwyuhgpdyl",12202,"Employee Igoth is assigned to project Erok.","Igoth","is assigned to",13703,3,"is assigned to","Igoth","Erok","Erok","1",8,TRUE,TRUE,TRUE,"filler",0,1,9,18,9.40943710213184,9.52544304000396,"employee1","none","none","none","morning","2016-05-03",0,4
"1131","employee","Igoth,Erok,Ebib,Assit,Upum,Lyde","hebb",10,699012,"0.0-3.0-7.0","2cmwyuhgpdyl",8512,"Project Erok supports agenda of manager Ebib.","Erok","supports sth. of",14455,3,"supports sth. of","Erok","Ebib","Ebib","2",8,TRUE,TRUE,TRUE,"filler",0,1,9,18,9.04934968588406,9.57886483227206,"employee2","none","none","none","morning","2016-05-03",0,4
"1132","employee","Igoth,Erok,Ebib,Assit,Upum,Lyde","hebb",10,699012,"0.0-3.0-7.0","2cmwyuhgpdyl",6416,"Manager Ebib gets a promotion.","Ebib","gets a promotion",5922,2,"gets a promotion","Ebib",NA,NA,"3",8,TRUE,NA,TRUE,"filler",0,1,9,18,8.76670599775052,8.68659835627697,"employee3","none","none",NA,"morning","2016-05-03",0,4
"114","bacteria","Awiz,Molash,Puvi,Eshov,Uhuy,Kawud","hebb",11,759731,"0.0-3.0-8.0","2cmwyuhgpdyl",10210,"Bacteria Awiz emits enzyme Molash.","Awiz","emits",10655,3,"emits","Awiz","Molash","Molash","1",9,TRUE,TRUE,TRUE,"analog",0,1,9,18,9.23122084955554,9.27387839278017,"bacteria1","none","none","none","morning","2016-05-03",0,5
"1141","bacteria","Awiz,Molash,Puvi,Eshov,Uhuy,Kawud","hebb",11,759731,"0.0-3.0-8.0","2cmwyuhgpdyl",10416,"Enzyme Molash dissolves the membrane of organ Puvi.","Molash","dissolves sth. of",13976,3,"dissolves sth. of","Molash","Puvi","Puvi","2",9,TRUE,TRUE,TRUE,"analog",0,1,9,18,9.25119436598445,9.54516840048491,"bacteria2","none","none","none","morning","2016-05-03",0,5
"1142","bacteria","Awiz,Molash,Puvi,Eshov,Uhuy,Kawud","hebb",11,759731,"0.0-3.0-8.0","2cmwyuhgpdyl",7584,"Organ Puvi fails.","Puvi","fails",6360,2,"fails","Puvi",NA,NA,"3",9,TRUE,NA,TRUE,"analog",0,1,9,18,8.93392789178263,8.7579408766788,"bacteria3","none","none",NA,"morning","2016-05-03",0,5
"115","insect","Olef,Uyim,Izdep,Gena,Mewep,Ottha","hebb",12,823490,"0.0-3.0-9.0","2cmwyuhgpdyl",14194,"Perfume Olef attracts insect Uyim.","Olef","attracts",11153,3,"attracts","Olef","Uyim","Uyim","1",10,TRUE,TRUE,TRUE,"filler",0,1,9,18,9.56064506890707,9.3195534569495,"insect1","none","none","none","morning","2016-05-03",0,5
"1151","insect","Olef,Uyim,Izdep,Gena,Mewep,Ottha","hebb",12,823490,"0.0-3.0-9.0","2cmwyuhgpdyl",9264,"Insect Uyim attacks woman Izdep.","Uyim","attacks",11709,3,"attacks","Uyim","Izdep","Izdep","2",10,TRUE,TRUE,TRUE,"filler",0,1,9,18,9.13399913871946,9.36819845659176,"insect2","none","none","none","morning","2016-05-03",0,5
"1152","insect","Olef,Uyim,Izdep,Gena,Mewep,Ottha","hebb",12,823490,"0.0-3.0-9.0","2cmwyuhgpdyl",8739,"Woman Izdep has an allergic reaction.","Izdep","has an allergic reaction",7184,2,"has an allergic reaction","Izdep",NA,NA,"3",10,TRUE,NA,TRUE,"filler",0,1,9,18,9.07566546864958,8.87975079851313,"insect3","none","none",NA,"morning","2016-05-03",0,5
"117","lawyer","Ewey,Owmi,Eyem,Huluw,Mawi,Roze","hebb",14,924338,"0.0-3.0-11.0","2cmwyuhgpdyl",20386,"Lawyer Ewey finds loophole Owmi.","Ewey","finds",11246,3,"finds","Ewey","Owmi","Owmi","1",12,TRUE,TRUE,TRUE,"analog",0,1,9,18,9.92265272179714,9.32785670540402,"lawyer1","none","none","none","morning","2016-05-03",0,6
"1171","lawyer","Ewey,Owmi,Eyem,Huluw,Mawi,Roze","hebb",14,924338,"0.0-3.0-11.0","2cmwyuhgpdyl",12176,"Loophole Owmi bypasses contract of union Eyem.","Owmi","bypasses sth. of",12119,3,"bypasses sth. of","Owmi","Eyem","Eyem","2",12,TRUE,TRUE,TRUE,"analog",0,1,9,18,9.40730420550701,9.40261225962331,"lawyer2","none","none","none","morning","2016-05-03",0,6
"1172","lawyer","Ewey,Owmi,Eyem,Huluw,Mawi,Roze","hebb",14,924338,"0.0-3.0-11.0","2cmwyuhgpdyl",6912,"Union Eyem loses a lawsuit.","Eyem","loses sth.",8409,2,"loses sth.","Eyem",NA,NA,"3",12,TRUE,NA,TRUE,"analog",0,1,9,18,8.84115897594526,9.03717675296699,"lawyer3","none","none",NA,"morning","2016-05-03",0,6
"118","fish","Kewos,Ada,Goxos,Gelyp,Aid,Vipal","hebb",15,986497,"0.0-3.0-12.0","2cmwyuhgpdyl",17938,"Fisher Kewos cultivates sea grass Ada.","Kewos","cultivates",9071,3,"cultivates","Kewos","Ada","Ada","1",13,TRUE,TRUE,TRUE,"filler",0,1,9,18,9.79473239269909,9.11294802596753,"fish1","none","none","none","morning","2016-05-03",0,6
"1181","fish","Kewos,Ada,Goxos,Gelyp,Aid,Vipal","hebb",15,986497,"0.0-3.0-12.0","2cmwyuhgpdyl",9151,"Sea grass Ada is eaten by fish Goxos.","Ada","is eaten by",11095,3,"is eaten by","Ada","Goxos","Goxos","2",13,TRUE,TRUE,TRUE,"filler",0,1,9,18,9.12172771361958,9.31433996199467,"fish2","none","none","none","morning","2016-05-03",0,6
"1182","fish","Kewos,Ada,Goxos,Gelyp,Aid,Vipal","hebb",15,986497,"0.0-3.0-12.0","2cmwyuhgpdyl",7905,"Fish Goxos is captured.","Goxos","is captured",5496,2,"is captured","Goxos",NA,NA,"3",13,TRUE,NA,TRUE,"filler",0,1,9,18,8.97537724385663,8.61195776786066,"fish3","none","none",NA,"morning","2016-05-03",0,6
"119","robber","Paza,Hize,Orok,Ifeh,Eefar,Idog","hebb",16,1057346,"0.0-3.0-13.0","2cmwyuhgpdyl",18147,"Criminal Paza learns about security issue Hize.","Paza","learns about",10420,3,"learns about","Paza","Hize","Hize","1",14,TRUE,TRUE,TRUE,"analog",0,1,9,18,9.80631564078385,9.25157827999243,"robber1","none","none","none","morning","2016-05-03",0,7
"1191","robber","Paza,Hize,Orok,Ifeh,Eefar,Idog","hebb",16,1057346,"0.0-3.0-13.0","2cmwyuhgpdyl",10848,"Security issue Hize suspends alarm system of museum Orok.","Hize","suspends sth. of",11282,3,"suspends sth. of","Hize","Orok","Orok","2",14,TRUE,TRUE,TRUE,"analog",0,1,9,18,9.29182818882245,9.33105244713845,"robber2","none","none","none","morning","2016-05-03",0,7
"1192","robber","Paza,Hize,Orok,Ifeh,Eefar,Idog","hebb",16,1057346,"0.0-3.0-13.0","2cmwyuhgpdyl",12848,"Museum Orok gets robbed.","Orok","gets robbed",5801,2,"gets robbed","Orok",NA,NA,"3",14,TRUE,NA,TRUE,"analog",0,1,9,18,9.46102126628348,8.66595796468135,"robber3","none","none",NA,"morning","2016-05-03",0,7
"120","mining","Vuloz,Olag,Afid,Thygef,Ribi,Ofes","hebb",17,1086264,"0.0-3.0-14.0","2cmwyuhgpdyl",4099,"Mining company Vuloz has a lot of resource Olag.","Vuloz","is filled with",8389,3,"has a lot of","Vuloz","Olag","Olag","1",15,TRUE,TRUE,FALSE,"filler",0,0.666666666666667,9,18,8.3187422526924,9.03479579946125,"mining1","syno","none","none","morning","2016-05-03",0,7
"1201","mining","Vuloz,Olag,Afid,Thygef,Ribi,Ofes","hebb",17,1086264,"0.0-3.0-14.0","2cmwyuhgpdyl",1025,"Resource Olag is sparse in country Afid.","Olag","Ofes",7072,3,"is sparse in","Olag","","","2",15,TRUE,TRUE,FALSE,"filler",0,0.666666666666667,9,18,6.93342302573071,8.86403999703599,"mining2","order-grasyn","none","none","morning","2016-05-03",0,7
"1202","mining","Vuloz,Olag,Afid,Thygef,Ribi,Ofes","hebb",17,1086264,"0.0-3.0-14.0","2cmwyuhgpdyl",1136,"Country Afid starts negotiating.","Olag","is filled with",12748,4,"starts negotiating","Afid",NA,NA,"3",15,FALSE,NA,FALSE,"filler",0,0,9,18,7.03614849375054,9.45320811613812,"mining3","order-syno","inter-stat",NA,"morning","2016-05-03",0,7
"1211","bacteria","Ofes,Mabi,Yuxeh,Titho,Avyth,Afid","hebb",3,114444,"0.0-3.0-0.0","2tj1f44asl3k",13443,"Bacteria Ofes emits enzyme Mabi.","Mabi","is eliminated",19132,3,"emits","Ofes","Ofes","Mabi","1",1,FALSE,FALSE,FALSE,"analog",1,0,8,11,9.506288188845,9.859169871885,"bacteria1","order-grasyn","intra-stat","intra-stat","morning","2016-04-29",0,1
"1212","bacteria","Ofes,Mabi,Yuxeh,Titho,Avyth,Afid","hebb",3,114444,"0.0-3.0-0.0","2tj1f44asl3k",20405,"Enzyme Mabi dissolves the membrane of organ Yuxeh.","Ofes","fails",23088,4,"dissolves sth. of","Mabi","Avyth","Yuxeh","2",1,FALSE,FALSE,FALSE,"analog",1,0,8,11,9.92358425423525,10.047111592619,"bacteria2","order","inter-stat","other","morning","2016-04-29",0,1
"1213","bacteria","Ofes,Mabi,Yuxeh,Titho,Avyth,Afid","hebb",3,114444,"0.0-3.0-0.0","2tj1f44asl3k",2142,"Organ Yuxeh fails.","Yuxeh","is eliminated",10747,2,"fails","Yuxeh",NA,NA,"3",1,TRUE,NA,FALSE,"analog",1,0.5,8,11,7.66996199547358,9.28247496973538,"bacteria3","grasyn","none",NA,"morning","2016-04-29",0,1
"1221","employee","Goxos,Potho,Assit,Wutoc,Hoyl,Ottha","hebb",4,194364,"0.0-3.0-1.0","2tj1f44asl3k",16482,"Employee Goxos is assigned to project Potho.","Goxos","is assigned to",28751,3,"is assigned to","Goxos","Potho","Potho","1",2,TRUE,TRUE,TRUE,"filler",0,1,8,11,9.71008482573136,10.2664626090233,"employee1","none","none","none","morning","2016-04-29",0,1
"1222","employee","Goxos,Potho,Assit,Wutoc,Hoyl,Ottha","hebb",4,194364,"0.0-3.0-1.0","2tj1f44asl3k",4264,"Project Potho supports agenda of manager Assit.","Potho","is arranged to",18182,3,"supports sth. of","Potho","Assit","Assit","2",2,TRUE,TRUE,FALSE,"filler",0,0.666666666666667,8,11,8.35819745992578,9.80824237061939,"employee2","order-grasyn","none","none","morning","2016-04-29",0,1
"1223","employee","Goxos,Potho,Assit,Wutoc,Hoyl,Ottha","hebb",4,194364,"0.0-3.0-1.0","2tj1f44asl3k",3287,"Manager Assit gets a promotion.","Assit","gets a promotion",7415,2,"gets a promotion","Assit",NA,NA,"3",2,TRUE,NA,TRUE,"filler",0,1,8,11,8.09803475617607,8.91139510724569,"employee3","none","none",NA,"morning","2016-04-29",0,1
"123","espionage","Pide,Afi,Molash,Gelyp,Fozeh,Hize","hebb",5,261635,"0.0-3.0-2.0","2tj1f44asl3k",6648,"Country Pide trains spy Afi.","Afi","is fired by sth. of",19102,3,"trains","Pide","Pide","Afi","1",3,FALSE,FALSE,FALSE,"analog",0,0,8,11,8.80222174640246,9.85760066976365,"espionage1","order-grasyn","intra-stat","intra-stat","morning","2016-04-29",0,2
"1231","espionage","Pide,Afi,Molash,Gelyp,Fozeh,Hize","hebb",5,261635,"0.0-3.0-2.0","2tj1f44asl3k",5441,"Spy Afi is hired by Intelligence Agency of country Molash.","Pide","has sth. poached",15359,3,"is hired by sth. of","Afi","Afi","Molash","2",3,FALSE,FALSE,FALSE,"analog",0,0,8,11,8.60190191934319,9.63952200670166,"espionage2","order-syno","inter-stat","intra-stat","morning","2016-04-29",0,2
"1232","espionage","Pide,Afi,Molash,Gelyp,Fozeh,Hize","hebb",5,261635,"0.0-3.0-2.0","2tj1f44asl3k",2614,"Country Molash has its secrets stolen.","Afi","has sth. lost",16575,2,"has sth. stolen","Molash",NA,NA,"3",3,FALSE,NA,FALSE,"analog",0,0,8,11,7.86901937649902,9.71571114505921,"espionage3","grasyn","inter-stat",NA,"morning","2016-04-29",0,2
"124","school","Ewey,Huluw,Kewos,Roze,Ezol,Ofpoz","hebb",6,937229,"0.0-3.0-3.0","2tj1f44asl3k",571599,"School girl Ewey hits boy Huluw.","Kewos","reports to",43168,9,"hits","Ewey","Huluw","Huluw","1",4,FALSE,TRUE,FALSE,"filler",0,0.333333333333333,8,11,13.2561947250378,10.6728779240468,"school1","order","inter-stat","none","morning","2016-04-29",0,2
"1241","school","Ewey,Huluw,Kewos,Roze,Ezol,Ofpoz","hebb",6,937229,"0.0-3.0-3.0","2tj1f44asl3k",4151,"Boy Huluw reports to teacher Kewos.","Huluw","reports to",40289,5,"reports to","Huluw","Ezol","Kewos","2",4,TRUE,FALSE,TRUE,"filler",0,0.666666666666667,8,11,8.33134542484572,10.6038585781854,"school2","none","none","other","morning","2016-04-29",0,2
"1242","school","Ewey,Huluw,Kewos,Roze,Ezol,Ofpoz","hebb",6,937229,"0.0-3.0-3.0","2tj1f44asl3k",5943,"Teacher Kewos calls parents.","Ezol","calls parents",8926,2,"calls parents","Kewos",NA,NA,"3",4,FALSE,NA,TRUE,"filler",0,0.5,8,11,8.6901375863976,9.09683567117936,"school3","none","other",NA,"morning","2016-04-29",0,2
"125","lawyer","Ebib,Wecin,Ada,Olef,Mewep,Orok","hebb",7,990214,"0.0-3.0-4.0","2tj1f44asl3k",6494,"Lawyer Ebib finds loophole Wecin.","Ebib","files sth.",16111,3,"finds","Ebib","Wecin","Wecin","1",5,TRUE,TRUE,FALSE,"analog",0,0.666666666666667,8,11,8.7787879291047,9.68731961495834,"lawyer1","order-grasyn","none","none","morning","2016-04-29",0,3
"1251","lawyer","Ebib,Wecin,Ada,Olef,Mewep,Orok","hebb",7,990214,"0.0-3.0-4.0","2tj1f44asl3k",999,"Loophole Wecin bypasses contract of union Ada.","Wecin","overrides sth. of",17951,3,"bypasses sth. of","Wecin","Ada","Ada","2",5,TRUE,TRUE,FALSE,"analog",0,0.666666666666667,8,11,6.90775527898214,9.79545680832242,"lawyer2","syno","none","none","morning","2016-04-29",0,3
"1252","lawyer","Ebib,Wecin,Ada,Olef,Mewep,Orok","hebb",7,990214,"0.0-3.0-4.0","2tj1f44asl3k",978,"Union Ada loses a lawsuit.","Ada","loses sth.",8914,2,"loses sth.","Ada",NA,NA,"3",5,TRUE,NA,TRUE,"analog",0,1,8,11,6.88653164253051,9.09549053029724,"lawyer3","none","none",NA,"morning","2016-04-29",0,3
"126","mining","Pishi,Irov,Wehif,Evib,Vipal,Uwit","hebb",8,1079972,"0.0-3.0-5.0","2tj1f44asl3k",2172,"Mining company Pishi has a lot of resource Irov.","Wehif","has a lot of",42699,5,"has a lot of","Pishi","Irov","Irov","1",6,FALSE,TRUE,TRUE,"filler",0,0.666666666666667,8,11,7.68386398025643,10.6619541992167,"mining1","none","inter-stat","none","morning","2016-04-29",0,3
"1261","mining","Pishi,Irov,Wehif,Evib,Vipal,Uwit","hebb",8,1079972,"0.0-3.0-5.0","2tj1f44asl3k",849,"Resource Irov is sparse in country Wehif.","Irov","is rarely found in",34098,3,"is sparse in","Irov","Wehif","Wehif","2",6,TRUE,TRUE,FALSE,"filler",0,0.666666666666667,8,11,6.74523634948436,10.4370233373284,"mining2","syno","none","none","morning","2016-04-29",0,3
"1262","mining","Pishi,Irov,Wehif,Evib,Vipal,Uwit","hebb",8,1079972,"0.0-3.0-5.0","2tj1f44asl3k",943,"Country Wehif starts negotiating.","Wehif","starts negotiating",7454,3,"starts negotiating","Wehif",NA,NA,"3",6,TRUE,NA,TRUE,"filler",0,1,8,11,6.8501261661455,8.91664022719884,"mining3","none","none",NA,"morning","2016-04-29",0,3
"127","robber","Atmag,Ubug,Awiz,Idog,Puvi,Napib","hebb",9,1135492,"0.0-3.0-6.0","2tj1f44asl3k",2262,"Criminal Atmag learns about security issue Ubug.","Idog","learns about",15384,3,"learns about","Atmag","Ubug","Ubug","1",7,FALSE,TRUE,TRUE,"analog",0,0.666666666666667,8,11,7.72444664563354,9.64114828775614,"robber1","none","other","none","morning","2016-04-29",0,4
"1271","robber","Atmag,Ubug,Awiz,Idog,Puvi,Napib","hebb",9,1135492,"0.0-3.0-6.0","2tj1f44asl3k",887,"Security issue Ubug suspends alarm system of museum Awiz.","Idog","starts looking",19232,4,"suspends sth. of","Ubug","Atmag","Awiz","2",7,FALSE,FALSE,FALSE,"analog",0,0,8,11,6.78897174299217,9.86438283265537,"robber2","order-grasyn","other","inter-stat","morning","2016-04-29",0,4
"1272","robber","Atmag,Ubug,Awiz,Idog,Puvi,Napib","hebb",9,1135492,"0.0-3.0-6.0","2tj1f44asl3k",2287,"Museum Awiz gets robbed.","Awiz","gets robbed",13928,2,"gets robbed","Awiz",NA,NA,"3",7,TRUE,NA,TRUE,"analog",0,1,8,11,7.73543335249969,9.54172827668803,"robber3","none","none",NA,"morning","2016-04-29",0,4
"128","meteo","Yoges,Afik,Upel,Ahow,Epnux,Enwi","hebb",10,1183429,"0.0-3.0-7.0","2tj1f44asl3k",1843,"Cloud Yoges collects humidity over ocean Afik.","Upel","collects humidity over",22567,5,"collects humidity over","Yoges","Afik","Afik","1",8,FALSE,TRUE,TRUE,"filler",0,0.666666666666667,8,11,7.51969240411654,10.0242882526818,"meteo1","none","inter-stat","none","morning","2016-04-29",0,4
"1281","meteo","Yoges,Afik,Upel,Ahow,Epnux,Enwi","hebb",10,1183429,"0.0-3.0-7.0","2tj1f44asl3k",935,"Ocean Afik lies next to the beaches of area Upel.","Upel","is located near",12576,3,"lies next to","Afik","Afik","Upel","2",8,FALSE,FALSE,FALSE,"filler",0,0,8,11,6.84161547647759,9.43962502804716,"meteo2","syno","intra-stat","intra-stat","morning","2016-04-29",0,4
"1282","meteo","Yoges,Afik,Upel,Ahow,Epnux,Enwi","hebb",10,1183429,"0.0-3.0-7.0","2tj1f44asl3k",794,"Area Upel is fertile.","Upel","is fertile",7697,2,"is fertile","Upel",NA,NA,"3",8,TRUE,NA,TRUE,"filler",0,1,8,11,6.67834211465433,8.94871583384369,"meteo3","none","none",NA,"morning","2016-04-29",0,4
"129","fox","Eefar,Rove,Vilux,Saly,Hosen,Meuf","hebb",11,1221340,"0.0-3.0-8.0","2tj1f44asl3k",1443,"Fox Eefar digs tunnel Rove.","Eefar","digs",13365,3,"digs","Eefar","Rove","Rove","1",9,TRUE,TRUE,TRUE,"analog",0,1,8,11,7.27517231945277,9.50046944807102,"fox1","none","none","none","morning","2016-04-29",0,5
"1291","fox","Eefar,Rove,Vilux,Saly,Hosen,Meuf","hebb",11,1221340,"0.0-3.0-8.0","2tj1f44asl3k",750,"Tunnel Rove leads to coop of chicken Vilux.","Rove","leads to sth. of",10879,3,"leads to sth. of","Rove","Vilux","Vilux","2",9,TRUE,TRUE,TRUE,"analog",0,1,8,11,6.62140565176413,9.29468152040993,"fox2","none","none","none","morning","2016-04-29",0,5
"1292","fox","Eefar,Rove,Vilux,Saly,Hosen,Meuf","hebb",11,1221340,"0.0-3.0-8.0","2tj1f44asl3k",609,"Chicken Vilux is devoured.","Vilux","is devoured",9320,2,"is devoured","Vilux",NA,NA,"3",9,TRUE,NA,TRUE,"analog",0,1,8,11,6.41345895716736,9.14002519806116,"fox3","none","none",NA,"morning","2016-04-29",0,5
"130","insect","Ribi,Erok,Uvman,Owih,Paza,Upum","hebb",12,1281741,"0.0-3.0-9.0","2tj1f44asl3k",1289,"Perfume Ribi attracts insect Erok.","Upum","attacks",15618,4,"attracts","Ribi","Erok","Erok","1",10,FALSE,TRUE,FALSE,"filler",0,0.333333333333333,8,11,7.16239749735572,9.65624340085772,"insect1","order","other","none","morning","2016-04-29",0,5
"1301","insect","Ribi,Erok,Uvman,Owih,Paza,Upum","hebb",12,1281741,"0.0-3.0-9.0","2tj1f44asl3k",733,"Insect Erok attacks woman Uvman.","Erok","attracts",21851,3,"attacks","Erok","Uvman","Uvman","2",10,TRUE,TRUE,FALSE,"filler",0,0.666666666666667,8,11,6.59850902861452,9.99204772951561,"insect2","order","none","none","morning","2016-04-29",0,5
"1302","insect","Ribi,Erok,Uvman,Owih,Paza,Upum","hebb",12,1281741,"0.0-3.0-9.0","2tj1f44asl3k",881,"Woman Uvman has an allergic reaction.","Upum","has an allergic reaction",18494,2,"has an allergic reaction","Uvman",NA,NA,"3",10,FALSE,NA,TRUE,"filler",0,0.5,8,11,6.78219205600679,9.82525570426655,"insect3","none","other",NA,"morning","2016-04-29",0,5
"1321","hacker","Enmob,Kawud,Ilres,Thisun,Hoap,Uyim","hebb",14,1354958,"0.0-3.0-11.0","2tj1f44asl3k",2974,"Hacker Enmob wrote computer code Kawud.","Kawud","cracks sth. of",17050,3,"wrote","Enmob","Ilres","Kawud","1",12,FALSE,FALSE,FALSE,"analog",0,0,8,11,7.99799931797973,9.74396413201815,"hacker1","order","intra-stat","inter-stat","morning","2016-04-29",0,6
"1322","hacker","Enmob,Kawud,Ilres,Thisun,Hoap,Uyim","hebb",14,1354958,"0.0-3.0-11.0","2tj1f44asl3k",743,"Code Kawud cracks the firewall of company Ilres.","Ilres","wrote",19914,3,"cracks sth. of","Kawud","Kawud","Ilres","2",12,FALSE,FALSE,FALSE,"analog",0,0,8,11,6.61204103483309,9.89922849561574,"hacker2","order","intra-stat","intra-stat","morning","2016-04-29",0,6
"1323","hacker","Enmob,Kawud,Ilres,Thisun,Hoap,Uyim","hebb",14,1354958,"0.0-3.0-11.0","2tj1f44asl3k",1153,"Company Ilres suffers a data loss.","Ilres","suffers sth.",10312,2,"suffers sth.","Ilres",NA,NA,"3",12,TRUE,NA,TRUE,"analog",0,1,8,11,7.05098944706805,9.24116051431607,"hacker3","none","none",NA,"morning","2016-04-29",0,6
"133","farm","Thygef,Thyra,Mawi,Dohod,Eshbu,Vivaf","hebb",15,1407056,"0.0-3.0-12.0","2tj1f44asl3k",1182,"Farmer Thygef bought machine Thyra.","Thygef","are reaped mechanically",12480,4,"bought","Thygef","Thyra","Thyra","1",13,TRUE,TRUE,FALSE,"filler",0,0.666666666666667,8,11,7.07580886397839,9.43196276691845,"farm1","order-syno","none","none","morning","2016-04-29",0,6
"1331","farm","Thygef,Thyra,Mawi,Dohod,Eshbu,Vivaf","hebb",15,1407056,"0.0-3.0-12.0","2tj1f44asl3k",822,"Machine Thyra can collect fruit of plant Mawi.","Thygef","bought",18504,3,"can collect","Thyra","Mawi","Mawi","2",13,FALSE,TRUE,FALSE,"filler",0,0.333333333333333,8,11,6.71295620067707,9.82579624482026,"farm2","order","inter-stat","none","morning","2016-04-29",0,6
"1332","farm","Thygef,Thyra,Mawi,Dohod,Eshbu,Vivaf","hebb",15,1407056,"0.0-3.0-12.0","2tj1f44asl3k",7560,"Plant Mawi are harvested automatically.","Mawi","purchased",10008,2,"are harvested automatically","Mawi",NA,NA,"3",13,TRUE,NA,FALSE,"filler",0,0.5,8,11,8.93075873555827,9.21123996721902,"farm3","order-syno","none",NA,"morning","2016-04-29",0,6
"134","crusader","Olag,Eyem,Upno,Felac,Zimob,Vuloz","hebb",16,1458392,"0.0-3.0-13.0","2tj1f44asl3k",2126,"Crusader group Olag bought weapon Eyem.","Olag","bought",18236,3,"bought","Olag","Eyem","Eyem","1",14,TRUE,TRUE,TRUE,"analog",0,1,8,11,7.66246781520024,9.81120777641683,"crusader1","none","none","none","morning","2016-04-29",0,7
"1341","crusader","Olag,Eyem,Upno,Felac,Zimob,Vuloz","hebb",16,1458392,"0.0-3.0-13.0","2tj1f44asl3k",841,"Weapon Eyem breaches the fortification of town Upno.","Eyem","breaches sth. of",18569,5,"breaches sth. of","Eyem","Upno","Upno","2",14,TRUE,TRUE,TRUE,"analog",0,1,8,11,6.73578001424233,9.82930265434675,"crusader2","none","none","none","morning","2016-04-29",0,7
