"","title","names","condition","trial_type","trial_index","time_elapsed","internal_node_id","sessionCode","X","fullStat","name1","relation","timeDrag","ndrags","rel_sol","name1_sol","name2","name2_sol","statIdx","stoIdx","first","overall_cor","uniqueStatement","relError","name1_error","name2_error","dayblock","date","stoIdx2","condStoIdx","primed","timeDragLog","variable","value","responseType","stoIdx2Z","condStoIdxZ","conditionZ","primedZ"
"1","farm","Zishu,Zimob,Saly,Potho,Afik,Vuloz","fillers","hebb",7,385839,"0.0-4.0-3.0","0p5lpvlclyr2",NA,"Farmer Zishu purchases machine Zimob.","Zishu","purchases",23328,4,"purchases","Zishu","Zimob","Zimob","1",5,0,1,"farm1","none","none","none","afternoon",NA,1,1,1,10.0574525008306,"name1_cor",TRUE,"name",-1.59312329067521,-1.46372908506565,0.999917324624719,0.999917324624719
"2","farm","Zishu,Zimob,Saly,Potho,Afik,Vuloz","fillers","hebb",7,385839,"0.0-4.0-3.0","0p5lpvlclyr2",NA,"Machine Zimob can collect fruit of plant Saly.","Zimob","can collect",15402,3,"can collect","Zimob","Saly","Saly","2",5,0,1,"farm2","none","none","none","afternoon",NA,1,1,1,9.64231757462446,"name1_cor",TRUE,"name",-1.59312329067521,-1.46372908506565,0.999917324624719,0.999917324624719
"3","farm","Zishu,Zimob,Saly,Potho,Afik,Vuloz","fillers","hebb",7,385839,"0.0-4.0-3.0","0p5lpvlclyr2",NA,"Plant Saly are harvested automatically.","Saly","are harvested automatically",10247,2,"are harvested automatically","Saly",NA,NA,"3",5,0,1,"farm3","none","none",NA,"afternoon",NA,1,1,1,9.23483784357657,"name1_cor",TRUE,"name",-1.59312329067521,-1.46372908506565,0.999917324624719,0.999917324624719
"4","employee","Diaf,Uyim,Lenik,Molash,Matmag,Igoth","fillers","hebb",8,436834,"0.0-4.0-4.0","0p5lpvlclyr2",NA,"Employee Diaf is assigned to project Uyim.","Diaf","is assigned to",19081,3,"is assigned to","Diaf","Uyim","Uyim","1",6,0,1,"employee1","none","none","none","afternoon",NA,2,2,0,9.85650076131179,"name1_cor",TRUE,"name",-1.30346451055245,-0.878237451039389,0.999917324624719,-0.999917324624719
"5","employee","Diaf,Uyim,Lenik,Molash,Matmag,Igoth","fillers","hebb",8,436834,"0.0-4.0-4.0","0p5lpvlclyr2",NA,"Project Uyim supports agenda of manager Lenik.","Uyim","supports sth. of",11433,3,"supports sth. of","Uyim","Lenik","Lenik","2",6,0,1,"employee2","none","none","none","afternoon",NA,2,2,0,9.34434665182392,"name1_cor",TRUE,"name",-1.30346451055245,-0.878237451039389,0.999917324624719,-0.999917324624719
"6","employee","Diaf,Uyim,Lenik,Molash,Matmag,Igoth","fillers","hebb",8,436834,"0.0-4.0-4.0","0p5lpvlclyr2",NA,"Manager Lenik gets a promotion.","Lenik","gets a promotion",9951,2,"gets a promotion","Lenik",NA,NA,"3",6,0,1,"employee3","none","none",NA,"afternoon",NA,2,2,0,9.20552881497896,"name1_cor",TRUE,"name",-1.30346451055245,-0.878237451039389,0.999917324624719,-0.999917324624719
"7","lawyer","Mabi,Aid,Vivaf,Soav,Zidep,Awiz","analogues","hebb",9,496962,"0.0-4.0-5.0","0p5lpvlclyr2",NA,"Lawyer Mabi finds loophole Aid.","Aid","finds",28176,3,"finds","Mabi","Mabi","Aid","1",7,0,0.333333333333333,"lawyer1","none","intra-stat","intra-stat","afternoon",NA,3,1,1,10.2462613213044,"name1_cor",FALSE,"name",-1.01380573042968,-1.46372908506565,-0.999917324624719,0.999917324624719
"8","lawyer","Mabi,Aid,Vivaf,Soav,Zidep,Awiz","analogues","hebb",9,496962,"0.0-4.0-5.0","0p5lpvlclyr2",NA,"Loophole Aid bypasses contract of union Vivaf.","Mabi","bypasses sth. of",14076,3,"bypasses sth. of","Aid","Vivaf","Vivaf","2",7,0,0.666666666666667,"lawyer2","none","inter-stat","none","afternoon",NA,3,1,1,9.55229753882796,"name1_cor",FALSE,"name",-1.01380573042968,-1.46372908506565,-0.999917324624719,0.999917324624719
"9","lawyer","Mabi,Aid,Vivaf,Soav,Zidep,Awiz","analogues","hebb",9,496962,"0.0-4.0-5.0","0p5lpvlclyr2",NA,"Union Vivaf loses a lawsuit.","Vivaf","loses sth.",7359,2,"loses sth.","Vivaf",NA,NA,"3",7,0,1,"lawyer3","none","none",NA,"afternoon",NA,3,1,1,8.90381521172292,"name1_cor",TRUE,"name",-1.01380573042968,-1.46372908506565,-0.999917324624719,0.999917324624719
"10","fox","Pide,Vipal,Turow,Uvman,Dohod,Ohuy","analogues","hebb",10,558342,"0.0-4.0-6.0","0p5lpvlclyr2",NA,"Fox Pide digs tunnel Vipal.","Pide","digs",29284,3,"digs","Pide","Vipal","Vipal","1",8,0,1,"fox1","none","none","none","afternoon",NA,4,2,0,10.2848307185239,"name1_cor",TRUE,"name",-0.724146950306915,-0.878237451039389,-0.999917324624719,-0.999917324624719
"11","fox","Pide,Vipal,Turow,Uvman,Dohod,Ohuy","analogues","hebb",10,558342,"0.0-4.0-6.0","0p5lpvlclyr2",NA,"Tunnel Vipal leads to coop of chicken Turow.","Vipal","leads to sth. of",13126,3,"leads to sth. of","Vipal","Turow","Turow","2",8,0,1,"fox2","none","none","none","afternoon",NA,4,2,0,9.48242645680341,"name1_cor",TRUE,"name",-0.724146950306915,-0.878237451039389,-0.999917324624719,-0.999917324624719
"12","fox","Pide,Vipal,Turow,Uvman,Dohod,Ohuy","analogues","hebb",10,558342,"0.0-4.0-6.0","0p5lpvlclyr2",NA,"Chicken Turow is devoured.","Turow","is devoured",8430,3,"is devoured","Turow",NA,NA,"3",8,0,1,"fox3","none","none",NA,"afternoon",NA,4,2,0,9.03967066792268,"name1_cor",TRUE,"name",-0.724146950306915,-0.878237451039389,-0.999917324624719,-0.999917324624719
"13","pump","Hoyl,Enmob,Huluw,Ewey,Olag,Hoap","fillers","hebb",11,610045,"0.0-4.0-7.0","0p5lpvlclyr2",NA,"Plumber Hoyl installs pump Enmob.","Hoyl","installs",21375,3,"installs","Hoyl","Enmob","Enmob","1",9,0,1,"pump1","none","none","none","afternoon",NA,5,3,1,9.97002407633637,"name1_cor",TRUE,"name",-0.434488170184149,-0.29274581701313,0.999917324624719,0.999917324624719
"14","pump","Hoyl,Enmob,Huluw,Ewey,Olag,Hoap","fillers","hebb",11,610045,"0.0-4.0-7.0","0p5lpvlclyr2",NA,"Pump Enmob sucks water from ground Huluw.","Enmob","sucks sth. from",12521,3,"sucks sth. from","Enmob","Huluw","Huluw","2",9,0,1,"pump2","none","none","none","afternoon",NA,5,3,1,9.43524237630526,"name1_cor",TRUE,"name",-0.434488170184149,-0.29274581701313,0.999917324624719,0.999917324624719
"15","pump","Hoyl,Enmob,Huluw,Ewey,Olag,Hoap","fillers","hebb",11,610045,"0.0-4.0-7.0","0p5lpvlclyr2",NA,"Ground Huluw dries up.","Huluw","dries up",7281,2,"dries up","Huluw",NA,NA,"3",9,0,1,"pump3","none","none",NA,"afternoon",NA,5,3,1,8.89316082873538,"name1_cor",TRUE,"name",-0.434488170184149,-0.29274581701313,0.999917324624719,0.999917324624719
"16","neighbor","Ahow,Assit,Ihab,Yoges,Ezol,Upum","fillers","hebb",12,681318,"0.0-4.0-8.0","0p5lpvlclyr2",NA,"Man Ahow takes care of cat Assit.","Ezol","takes care of",38192,3,"takes care of","Ahow","Assit","Assit","1",10,0,0.666666666666667,"neighbor1","none","other","none","afternoon",NA,6,4,0,10.5504075317298,"name1_cor",FALSE,"name",-0.144829390061383,0.29274581701313,0.999917324624719,-0.999917324624719
"17","neighbor","Ahow,Assit,Ihab,Yoges,Ezol,Upum","fillers","hebb",12,681318,"0.0-4.0-8.0","0p5lpvlclyr2",NA,"Cat Assit walks over the flowers of neighbor Ihab","Assit","walks over sth. of",14515,3,"walks over sth. of","Assit","Ihab","Ihab","2",10,0,1,"neighbor2","none","none","none","afternoon",NA,6,4,0,9.58300676833296,"name1_cor",TRUE,"name",-0.144829390061383,0.29274581701313,0.999917324624719,-0.999917324624719
"18","neighbor","Ahow,Assit,Ihab,Yoges,Ezol,Upum","fillers","hebb",12,681318,"0.0-4.0-8.0","0p5lpvlclyr2",NA,"Neighbor Ihab gets angry.","Ihab","gets angry",8039,2,"gets angry","Ihab",NA,NA,"3",10,0,1,"neighbor3","none","none",NA,"afternoon",NA,6,4,0,8.99218436217301,"name1_cor",TRUE,"name",-0.144829390061383,0.29274581701313,0.999917324624719,-0.999917324624719
"19","hacker","Orok,Dugoz,Olef,Mewep,Ottha,Itbob","analogues","hebb",13,733798,"0.0-4.0-9.0","0p5lpvlclyr2",NA,"Hacker Orok writes computer code Dugoz.","Olef","writes",19343,3,"writes","Orok","Orok","Dugoz","1",11,0,0.333333333333333,"hacker1","none","inter-stat","intra-stat","afternoon",NA,7,3,1,9.87013757285457,"name1_cor",FALSE,"name",0.144829390061383,-0.29274581701313,-0.999917324624719,0.999917324624719
"20","hacker","Orok,Dugoz,Olef,Mewep,Ottha,Itbob","analogues","hebb",13,733798,"0.0-4.0-9.0","0p5lpvlclyr2",NA,"Code Dugoz cracks the firewall of company Olef.","Orok","cracks sth. of",13440,3,"cracks sth. of","Dugoz","Olef","Olef","2",11,0,0.666666666666667,"hacker2","none","inter-stat","none","afternoon",NA,7,3,1,9.50606501607115,"name1_cor",FALSE,"name",0.144829390061383,-0.29274581701313,-0.999917324624719,0.999917324624719
"21","hacker","Orok,Dugoz,Olef,Mewep,Ottha,Itbob","analogues","hebb",13,733798,"0.0-4.0-9.0","0p5lpvlclyr2",NA,"Company Olef suffers a data loss.","Olef","suffers sth.",9167,2,"suffers sth.","Olef",NA,NA,"3",11,0,1,"hacker3","none","none",NA,"afternoon",NA,7,3,1,9.12347443895452,"name1_cor",TRUE,"name",0.144829390061383,-0.29274581701313,-0.999917324624719,0.999917324624719
"22","crusader","Hize,Reok,Felac,Newi,Evib,Eshbu","analogues","hebb",14,790005,"0.0-4.0-10.0","0p5lpvlclyr2",NA,"Crusader group Hize buys weapon Reok.","Hize","buys",23039,3,"buys","Hize","Reok","Reok","1",12,0,1,"crusader1","none","none","none","afternoon",NA,8,4,0,10.0449871148098,"name1_cor",TRUE,"name",0.434488170184149,0.29274581701313,-0.999917324624719,-0.999917324624719
"23","crusader","Hize,Reok,Felac,Newi,Evib,Eshbu","analogues","hebb",14,790005,"0.0-4.0-10.0","0p5lpvlclyr2",NA,"Weapon Reok breaches the fortification of town Felac.","Reok","breaches sth. of",12566,3,"breaches sth. of","Reok","Felac","Felac","2",12,0,1,"crusader2","none","none","none","afternoon",NA,8,4,0,9.43882960961514,"name1_cor",TRUE,"name",0.434488170184149,0.29274581701313,-0.999917324624719,-0.999917324624719
"24","crusader","Hize,Reok,Felac,Newi,Evib,Eshbu","analogues","hebb",14,790005,"0.0-4.0-10.0","0p5lpvlclyr2",NA,"Town Felac is invaded.","Felac","is invaded",10078,2,"is invaded","Felac",NA,NA,"3",12,0,1,"crusader3","none","none",NA,"afternoon",NA,8,4,0,9.21820933035488,"name1_cor",TRUE,"name",0.434488170184149,0.29274581701313,-0.999917324624719,-0.999917324624719
"25","mining","Yuxeh,Owmi,Uwit,Pobat,Thygef,Wehif","fillers","hebb",17,1002914,"0.0-4.0-13.0","0p5lpvlclyr2",NA,"Mining company Yuxeh has a lot of resource Owmi.","Yuxeh","has a lot of",24242,3,"has a lot of","Yuxeh","Owmi","Owmi","1",15,0,1,"mining1","none","none","none","afternoon",NA,9,5,1,10.0958831949016,"name1_cor",TRUE,"name",0.724146950306915,0.878237451039389,0.999917324624719,0.999917324624719
"26","mining","Yuxeh,Owmi,Uwit,Pobat,Thygef,Wehif","fillers","hebb",17,1002914,"0.0-4.0-13.0","0p5lpvlclyr2",NA,"Resource Owmi is sparse in country Uwit.","Owmi","is sparse in",16096,3,"is sparse in","Owmi","Uwit","Uwit","2",15,0,1,"mining2","none","none","none","afternoon",NA,9,5,1,9.68638819820623,"name1_cor",TRUE,"name",0.724146950306915,0.878237451039389,0.999917324624719,0.999917324624719
"27","mining","Yuxeh,Owmi,Uwit,Pobat,Thygef,Wehif","fillers","hebb",17,1002914,"0.0-4.0-13.0","0p5lpvlclyr2",NA,"Country Uwit starts negotiating.","Uwit","starts negotiating",12074,3,"starts negotiating","Uwit",NA,NA,"3",15,0,1,"mining3","none","none",NA,"afternoon",NA,9,5,1,9.39889247852077,"name1_cor",TRUE,"name",0.724146950306915,0.878237451039389,0.999917324624719,0.999917324624719
"28","storm","Henu,Meuf,Pishi,Roze,Thyra,Owih","fillers","hebb",18,1058736,"0.0-4.0-14.0","0p5lpvlclyr2",NA,"Storm Henu hits tree Meuf.","Henu","hits",21423,3,"hits","Henu","Meuf","Meuf","1",16,0,1,"storm1","none","none","none","afternoon",NA,10,6,0,9.97226706793095,"name1_cor",TRUE,"name",1.01380573042968,1.46372908506565,0.999917324624719,-0.999917324624719
"29","storm","Henu,Meuf,Pishi,Roze,Thyra,Owih","fillers","hebb",18,1058736,"0.0-4.0-14.0","0p5lpvlclyr2",NA,"Tree Meuf falls on trail of route Pishi.","Meuf","falls on",11873,3,"falls on","Meuf","Pishi","Pishi","2",16,0,1,"storm2","none","none","none","afternoon",NA,10,6,0,9.38210641483062,"name1_cor",TRUE,"name",1.01380573042968,1.46372908506565,0.999917324624719,-0.999917324624719
"30","storm","Henu,Meuf,Pishi,Roze,Thyra,Owih","fillers","hebb",18,1058736,"0.0-4.0-14.0","0p5lpvlclyr2",NA,"Route Pishi is blocked.","Pishi","is blocked",12001,2,"is blocked","Pishi",NA,NA,"3",16,0,1,"storm3","none","none",NA,"afternoon",NA,10,6,0,9.39282858154946,"name1_cor",TRUE,"name",1.01380573042968,1.46372908506565,0.999917324624719,-0.999917324624719
"31","bacteria","Eefar,Eyem,Epnux,Upno,Eshov,Hosen","analogues","hebb",19,1123216,"0.0-4.0-15.0","0p5lpvlclyr2",NA,"Bacteria Eefar emits enzyme Eyem.","Eefar","emits",21846,3,"emits","Eefar","Eyem","Eyem","1",17,0,1,"bacteria1","none","none","none","afternoon",NA,11,5,1,9.99181889132609,"name1_cor",TRUE,"name",1.30346451055245,0.878237451039389,-0.999917324624719,0.999917324624719
"32","bacteria","Eefar,Eyem,Epnux,Upno,Eshov,Hosen","analogues","hebb",19,1123216,"0.0-4.0-15.0","0p5lpvlclyr2",NA,"Enzyme Eyem dissolves the membrane of organ Epnux.","Eyem","dissolves sth. of",20661,3,"dissolves sth. of","Eyem","Upno","Epnux","2",17,0,0.666666666666667,"bacteria2","none","none","other","afternoon",NA,11,5,1,9.93605154340939,"name1_cor",TRUE,"name",1.30346451055245,0.878237451039389,-0.999917324624719,0.999917324624719
"33","bacteria","Eefar,Eyem,Epnux,Upno,Eshov,Hosen","analogues","hebb",19,1123216,"0.0-4.0-15.0","0p5lpvlclyr2",NA,"Organ Epnux fails.","Upno","fails",11444,3,"fails","Epnux",NA,NA,"3",17,0,0.5,"bacteria3","none","other",NA,"afternoon",NA,11,5,1,9.34530823238667,"name1_cor",FALSE,"name",1.30346451055245,0.878237451039389,-0.999917324624719,0.999917324624719
"34","robber","Niem,Rothuk,Ofpoz,Zugew,Lyde,Thuha","analogues","hebb",20,1180444,"0.0-4.0-16.0","0p5lpvlclyr2",NA,"Criminal Niem learns about security issue Rothuk.","Niem","learns about",20733,3,"learns about","Niem","Rothuk","Rothuk","1",18,0,1,"robber1","none","none","none","afternoon",NA,12,6,0,9.93953014388306,"name1_cor",TRUE,"name",1.59312329067521,1.46372908506565,-0.999917324624719,-0.999917324624719
"35","robber","Niem,Rothuk,Ofpoz,Zugew,Lyde,Thuha","analogues","hebb",20,1180444,"0.0-4.0-16.0","0p5lpvlclyr2",NA,"Security issue Rothuk suspends alarm system of museum Ofpoz.","Rothuk","suspends sth. of",12735,3,"suspends sth. of","Rothuk","Ofpoz","Ofpoz","2",18,0,1,"robber2","none","none","none","afternoon",NA,12,6,0,9.45218790808416,"name1_cor",TRUE,"name",1.59312329067521,1.46372908506565,-0.999917324624719,-0.999917324624719
"36","robber","Niem,Rothuk,Ofpoz,Zugew,Lyde,Thuha","analogues","hebb",20,1180444,"0.0-4.0-16.0","0p5lpvlclyr2",NA,"Museum Ofpoz gets robbed.","Ofpoz","gets robbed",13221,2,"gets robbed","Ofpoz",NA,NA,"3",18,0,1,"robber3","none","none",NA,"afternoon",NA,12,6,0,9.48963738789352,"name1_cor",TRUE,"name",1.59312329067521,1.46372908506565,-0.999917324624719,-0.999917324624719
"37","robber","Fozeh,Henu,Ena,Ewey,Diaf,Vilux","analogues","hebb",7,4673563,"0.0-4.0-3.0","0q6p85jkrtr8",NA,"Criminal Fozeh learns about security issue Henu.","Henu","finds out about",52682,3,"learns about","Fozeh","Ena","Henu","1",5,0,0,"robber1","syno","intra-stat","inter-stat","afternoon",NA,1,1,1,10.872048101844,"name1_cor",FALSE,"name",-1.59312329067521,-1.46372908506565,-0.999917324624719,0.999917324624719
"38","robber","Fozeh,Henu,Ena,Ewey,Diaf,Vilux","analogues","hebb",7,4673563,"0.0-4.0-3.0","0q6p85jkrtr8",NA,"Security issue Henu suspends alarm system of museum Ena.","Fozeh","is hijacked",12947,3,"suspends sth. of","Henu","Ena","Ena","2",5,0,0.333333333333333,"robber2","order-grasyn","inter-stat","none","afternoon",NA,1,1,1,9.46869661504613,"name1_cor",FALSE,"name",-1.59312329067521,-1.46372908506565,-0.999917324624719,0.999917324624719
"39","robber","Fozeh,Henu,Ena,Ewey,Diaf,Vilux","analogues","hebb",7,4673563,"0.0-4.0-3.0","0q6p85jkrtr8",NA,"Museum Ena gets robbed.","Ena","gets robbed",9050,2,"gets robbed","Ena",NA,NA,"3",5,0,1,"robber3","none","none",NA,"afternoon",NA,1,1,1,9.11063052782717,"name1_cor",TRUE,"name",-1.59312329067521,-1.46372908506565,-0.999917324624719,0.999917324624719
"40","fox","Avyth,Evib,Felac,Niem,Romap,Hoap","analogues","hebb",8,4745682,"0.0-4.0-4.0","0q6p85jkrtr8",NA,"Fox Avyth digs tunnel Evib.","Evib","wants",23535,3,"digs","Avyth","Felac","Evib","1",6,0,0,"fox1","grasyn","intra-stat","inter-stat","afternoon",NA,2,2,0,10.0662864428412,"name1_cor",FALSE,"name",-1.30346451055245,-0.878237451039389,-0.999917324624719,-0.999917324624719
"41","fox","Avyth,Evib,Felac,Niem,Romap,Hoap","analogues","hebb",8,4745682,"0.0-4.0-4.0","0q6p85jkrtr8",NA,"Tunnel Evib leads to coop of chicken Felac.","Felac","digs",12504,3,"leads to sth. of","Evib","Evib","Felac","2",6,0,0,"fox2","order","intra-stat","intra-stat","afternoon",NA,2,2,0,9.43388384331172,"name1_cor",FALSE,"name",-1.30346451055245,-0.878237451039389,-0.999917324624719,-0.999917324624719
"42","fox","Avyth,Evib,Felac,Niem,Romap,Hoap","analogues","hebb",8,4745682,"0.0-4.0-4.0","0q6p85jkrtr8",NA,"Chicken Felac is devoured.","Felac","is devoured",25548,2,"is devoured","Felac",NA,NA,"3",6,0,1,"fox3","none","none",NA,"afternoon",NA,2,2,0,10.1483534559227,"name1_cor",TRUE,"name",-1.30346451055245,-0.878237451039389,-0.999917324624719,-0.999917324624719
"43","employee","Rove,Afi,Pobat,Igoth,Mawi,Ilres","fillers","hebb",9,4788388,"0.0-4.0-5.0","0q6p85jkrtr8",NA,"Employee Rove is assigned to project Afi.","Rove","is assigned to",8000,3,"is assigned to","Rove","Pobat","Afi","1",7,0,0.666666666666667,"employee1","none","none","inter-stat","afternoon",NA,3,1,1,8.98732181285012,"name1_cor",TRUE,"name",-1.01380573042968,-1.46372908506565,0.999917324624719,0.999917324624719
"44","employee","Rove,Afi,Pobat,Igoth,Mawi,Ilres","fillers","hebb",9,4788388,"0.0-4.0-5.0","0q6p85jkrtr8",NA,"Project Afi supports agenda of manager Pobat.","Rove","is assigned to",14433,3,"supports sth. of","Afi","Afi","Pobat","2",7,0,0,"employee2","order","inter-stat","intra-stat","afternoon",NA,3,1,1,9.57734181363222,"name1_cor",FALSE,"name",-1.01380573042968,-1.46372908506565,0.999917324624719,0.999917324624719
"45","employee","Rove,Afi,Pobat,Igoth,Mawi,Ilres","fillers","hebb",9,4788388,"0.0-4.0-5.0","0q6p85jkrtr8",NA,"Manager Pobat gets a promotion.","Afi","gets a promotion",9730,3,"gets a promotion","Pobat",NA,NA,"3",7,0,0.5,"employee3","none","inter-stat",NA,"afternoon",NA,3,1,1,9.18307194482199,"name1_cor",FALSE,"name",-1.01380573042968,-1.46372908506565,0.999917324624719,0.999917324624719
"46","farm","Hoyl,Uyim,Zidep,Misug,Gelyp,Ribi","fillers","hebb",10,4887287,"0.0-4.0-6.0","0q6p85jkrtr8",NA,"Farmer Hoyl purchases machine Uyim.","Ribi","purchases",16233,4,"purchases","Hoyl","Uyim","Uyim","1",8,0,0.666666666666667,"farm1","none","other","none","afternoon",NA,4,2,0,9.69486308732112,"name1_cor",FALSE,"name",-0.724146950306915,-0.878237451039389,0.999917324624719,-0.999917324624719
"47","farm","Hoyl,Uyim,Zidep,Misug,Gelyp,Ribi","fillers","hebb",10,4887287,"0.0-4.0-6.0","0q6p85jkrtr8",NA,"Machine Uyim can collect fruit of plant Zidep.","Uyim","purchases",13584,3,"can collect","Uyim","Ribi","Zidep","2",8,0,0.333333333333333,"farm2","order","none","other","afternoon",NA,4,2,0,9.51672152186045,"name1_cor",TRUE,"name",-0.724146950306915,-0.878237451039389,0.999917324624719,-0.999917324624719
"48","farm","Hoyl,Uyim,Zidep,Misug,Gelyp,Ribi","fillers","hebb",10,4887287,"0.0-4.0-6.0","0q6p85jkrtr8",NA,"Plant Zidep are harvested automatically.","Ribi","are harvested automatically",58529,2,"are harvested automatically","Zidep",NA,NA,"3",8,0,0.5,"farm3","none","other",NA,"afternoon",NA,4,2,0,10.9772947222853,"name1_cor",FALSE,"name",-0.724146950306915,-0.878237451039389,0.999917324624719,-0.999917324624719
"49","lawyer","Mabi,Ezol,Eshov,Awiz,Orok,Thuha","analogues","hebb",11,4945854,"0.0-4.0-7.0","0q6p85jkrtr8",NA,"Lawyer Mabi finds loophole Ezol.","Eshov","finds",15680,3,"finds","Mabi","Mabi","Ezol","1",9,0,0.333333333333333,"lawyer1","none","inter-stat","intra-stat","afternoon",NA,5,3,1,9.66020506738103,"name1_cor",FALSE,"name",-0.434488170184149,-0.29274581701313,-0.999917324624719,0.999917324624719
"50","lawyer","Mabi,Ezol,Eshov,Awiz,Orok,Thuha","analogues","hebb",11,4945854,"0.0-4.0-7.0","0q6p85jkrtr8",NA,"Loophole Ezol bypasses contract of union Eshov.","Eshov","bypasses sth. of",22867,3,"bypasses sth. of","Ezol","Ezol","Eshov","2",9,0,0.333333333333333,"lawyer2","none","intra-stat","intra-stat","afternoon",NA,5,3,1,10.0374938323839,"name1_cor",FALSE,"name",-0.434488170184149,-0.29274581701313,-0.999917324624719,0.999917324624719
"51","lawyer","Mabi,Ezol,Eshov,Awiz,Orok,Thuha","analogues","hebb",11,4945854,"0.0-4.0-7.0","0q6p85jkrtr8",NA,"Union Eshov loses a lawsuit.","Ezol","loses sth.",9501,2,"loses sth.","Eshov",NA,NA,"3",9,0,0.5,"lawyer3","none","inter-stat",NA,"afternoon",NA,5,3,1,9.15925758174687,"name1_cor",FALSE,"name",-0.434488170184149,-0.29274581701313,-0.999917324624719,0.999917324624719
"52","hacker","Puvi,Eefar,Goxos,Thygef,Ofes,Potho","analogues","hebb",12,4994285,"0.0-4.0-8.0","0q6p85jkrtr8",NA,"Hacker Puvi writes computer code Eefar.","Ofes","cracks sth. of",17918,3,"writes","Puvi","Eefar","Eefar","1",10,0,0.333333333333333,"hacker1","order","other","none","afternoon",NA,6,4,0,9.79361688140042,"name1_cor",FALSE,"name",-0.144829390061383,0.29274581701313,-0.999917324624719,-0.999917324624719
"53","hacker","Puvi,Eefar,Goxos,Thygef,Ofes,Potho","analogues","hebb",12,4994285,"0.0-4.0-8.0","0q6p85jkrtr8",NA,"Code Eefar cracks the firewall of company Goxos.","Eefar","leaks sth.",8717,3,"cracks sth. of","Eefar","Puvi","Goxos","2",10,0,0.333333333333333,"hacker2","order-syno","none","inter-stat","afternoon",NA,6,4,0,9.07314513279834,"name1_cor",TRUE,"name",-0.144829390061383,0.29274581701313,-0.999917324624719,-0.999917324624719
"54","hacker","Puvi,Eefar,Goxos,Thygef,Ofes,Potho","analogues","hebb",12,4994285,"0.0-4.0-8.0","0q6p85jkrtr8",NA,"Company Goxos suffers a data loss.","Eefar","cracks sth. of",11251,3,"suffers sth.","Goxos",NA,NA,"3",10,0,0,"hacker3","order","inter-stat",NA,"afternoon",NA,6,4,0,9.32830116960975,"name1_cor",FALSE,"name",-0.144829390061383,0.29274581701313,-0.999917324624719,-0.999917324624719
"55","pump","Assit,Wecin,Soav,Eyem,Upno,Adjo","fillers","hebb",13,5034388,"0.0-4.0-9.0","0q6p85jkrtr8",NA,"Plumber Assit installs pump Wecin.","Assit","sucks sth. from",10117,3,"installs","Assit","Soav","Wecin","1",11,0,0.333333333333333,"pump1","order","none","inter-stat","afternoon",NA,7,3,1,9.22207129485188,"name1_cor",TRUE,"name",0.144829390061383,-0.29274581701313,0.999917324624719,0.999917324624719
"56","pump","Assit,Wecin,Soav,Eyem,Upno,Adjo","fillers","hebb",13,5034388,"0.0-4.0-9.0","0q6p85jkrtr8",NA,"Pump Wecin sucks water from ground Soav.","Soav","dries up",10444,3,"sucks sth. from","Wecin","Wecin","Soav","2",11,0,0,"pump2","order","intra-stat","intra-stat","afternoon",NA,7,3,1,9.25387867399067,"name1_cor",FALSE,"name",0.144829390061383,-0.29274581701313,0.999917324624719,0.999917324624719
"57","pump","Assit,Wecin,Soav,Eyem,Upno,Adjo","fillers","hebb",13,5034388,"0.0-4.0-9.0","0q6p85jkrtr8",NA,"Ground Soav dries up.","Wecin","sucks sth. from",8988,2,"dries up","Soav",NA,NA,"3",11,0,0,"pump3","order","inter-stat",NA,"afternoon",NA,7,3,1,9.1037568865734,"name1_cor",FALSE,"name",0.144829390061383,-0.29274581701313,0.999917324624719,0.999917324624719
"58","storm","Titho,Lyde,Ubug,Ohan,Yoges,Thusoth","fillers","hebb",14,5157211,"0.0-4.0-10.0","0q6p85jkrtr8",NA,"Storm Titho hits tree Lyde.","Titho","hits",13303,3,"hits","Titho","Lyde","Lyde","1",12,0,1,"storm1","none","none","none","afternoon",NA,8,4,0,9.49582002087276,"name1_cor",TRUE,"name",0.434488170184149,0.29274581701313,0.999917324624719,-0.999917324624719
"59","storm","Titho,Lyde,Ubug,Ohan,Yoges,Thusoth","fillers","hebb",14,5157211,"0.0-4.0-10.0","0q6p85jkrtr8",NA,"Tree Lyde falls on trail of route Ubug.","Lyde","falls on",16286,3,"falls on","Lyde","Yoges","Ubug","2",12,0,0.666666666666667,"storm2","none","none","other","afternoon",NA,8,4,0,9.69812252257356,"name1_cor",TRUE,"name",0.434488170184149,0.29274581701313,0.999917324624719,-0.999917324624719
"60","storm","Titho,Lyde,Ubug,Ohan,Yoges,Thusoth","fillers","hebb",14,5157211,"0.0-4.0-10.0","0q6p85jkrtr8",NA,"Route Ubug is blocked.","Lyde","is blocked",82678,2,"is blocked","Ubug",NA,NA,"3",12,0,0.5,"storm3","none","inter-stat",NA,"afternoon",NA,8,4,0,11.3227209188991,"name1_cor",FALSE,"name",0.434488170184149,0.29274581701313,0.999917324624719,-0.999917324624719
"61","bacteria","Zimob,Pishi,Enmob,Hosen,Uwit,Zishu","analogues","hebb",17,5328468,"0.0-4.0-13.0","0q6p85jkrtr8",NA,"Bacteria Zimob emits enzyme Pishi.","Enmob","dissolves sth. of",26266,5,"emits","Zimob","Pishi","Pishi","1",15,0,0.333333333333333,"bacteria1","order","inter-stat","none","afternoon",NA,9,5,1,10.1760686774527,"name1_cor",FALSE,"name",0.724146950306915,0.878237451039389,-0.999917324624719,0.999917324624719
"62","bacteria","Zimob,Pishi,Enmob,Hosen,Uwit,Zishu","analogues","hebb",17,5328468,"0.0-4.0-13.0","0q6p85jkrtr8",NA,"Enzyme Pishi dissolves the membrane of organ Enmob.","Pishi","emits",13567,3,"dissolves sth. of","Pishi","Zimob","Enmob","2",15,0,0.333333333333333,"bacteria2","order","none","inter-stat","afternoon",NA,9,5,1,9.51546935803168,"name1_cor",TRUE,"name",0.724146950306915,0.878237451039389,-0.999917324624719,0.999917324624719
"63","bacteria","Zimob,Pishi,Enmob,Hosen,Uwit,Zishu","analogues","hebb",17,5328468,"0.0-4.0-13.0","0q6p85jkrtr8",NA,"Organ Enmob fails.","Zimob","is eliminated",31830,2,"fails","Enmob",NA,NA,"3",15,0,0,"bacteria3","grasyn","inter-stat",NA,"afternoon",NA,9,5,1,10.3681959366849,"name1_cor",FALSE,"name",0.724146950306915,0.878237451039389,-0.999917324624719,0.999917324624719
"64","crusader","Thisun,Saly,Kewos,Yuxeh,Gena,Uvman","analogues","hebb",18,5373985,"0.0-4.0-14.0","0q6p85jkrtr8",NA,"Crusader group Thisun buys weapon Saly.","Yuxeh","is infiltrated",14080,3,"buys","Thisun","Kewos","Saly","1",16,0,0,"crusader1","order-grasyn","other","inter-stat","afternoon",NA,10,6,0,9.55258164991731,"name1_cor",FALSE,"name",1.01380573042968,1.46372908506565,-0.999917324624719,-0.999917324624719
"65","crusader","Thisun,Saly,Kewos,Yuxeh,Gena,Uvman","analogues","hebb",18,5373985,"0.0-4.0-14.0","0q6p85jkrtr8",NA,"Weapon Saly breaches the fortification of town Kewos.","Thisun","catches",15731,4,"breaches sth. of","Saly","Kewos","Kewos","2",16,0,0.333333333333333,"crusader2","order-grasyn","inter-stat","none","afternoon",NA,10,6,0,9.6634521335517,"name1_cor",FALSE,"name",1.01380573042968,1.46372908506565,-0.999917324624719,-0.999917324624719
"66","crusader","Thisun,Saly,Kewos,Yuxeh,Gena,Uvman","analogues","hebb",18,5373985,"0.0-4.0-14.0","0q6p85jkrtr8",NA,"Town Kewos is invaded.","Kewos","is infiltrated",5184,2,"is invaded","Kewos",NA,NA,"3",16,0,0.5,"crusader3","grasyn","none",NA,"afternoon",NA,10,6,0,8.55352512066363,"name1_cor",TRUE,"name",1.01380573042968,1.46372908506565,-0.999917324624719,-0.999917324624719
"67","neighbor","Huluw,Meuf,Ahow,Afik,Olef,Wehif","fillers","hebb",19,5415970,"0.0-4.0-15.0","0q6p85jkrtr8",NA,"Man Huluw takes care of cat Meuf.","Huluw","looks after",17467,3,"takes care of","Huluw","Meuf","Meuf","1",17,0,0.666666666666667,"neighbor1","syno","none","none","afternoon",NA,11,5,1,9.76812591460545,"name1_cor",TRUE,"name",1.30346451055245,0.878237451039389,0.999917324624719,0.999917324624719
"68","neighbor","Huluw,Meuf,Ahow,Afik,Olef,Wehif","fillers","hebb",19,5415970,"0.0-4.0-15.0","0q6p85jkrtr8",NA,"Cat Meuf walks over the flowers of neighbor Ahow","Meuf","walks over sth. of",9239,3,"walks over sth. of","Meuf","Olef","Ahow","2",17,0,0.666666666666667,"neighbor2","none","none","other","afternoon",NA,11,5,1,9.13129716463573,"name1_cor",TRUE,"name",1.30346451055245,0.878237451039389,0.999917324624719,0.999917324624719
"69","neighbor","Huluw,Meuf,Ahow,Afik,Olef,Wehif","fillers","hebb",19,5415970,"0.0-4.0-15.0","0q6p85jkrtr8",NA,"Neighbor Ahow gets angry.","Olef","gets angry",4732,2,"gets angry","Ahow",NA,NA,"3",17,0,0.5,"neighbor3","none","other",NA,"afternoon",NA,11,5,1,8.46231452990625,"name1_cor",FALSE,"name",1.30346451055245,0.878237451039389,0.999917324624719,0.999917324624719
"70","mining","Ohuy,Lenik,Napib,Kesal,Zugew,Upum","fillers","hebb",20,5473400,"0.0-4.0-16.0","0q6p85jkrtr8",NA,"Mining company Ohuy has a lot of resource Lenik.","Kesal","is sparse in",22015,4,"has a lot of","Ohuy","Lenik","Lenik","1",18,0,0.333333333333333,"mining1","order","other","none","afternoon",NA,12,6,0,9.99952474073307,"name1_cor",FALSE,"name",1.59312329067521,1.46372908506565,0.999917324624719,-0.999917324624719
"71","mining","Ohuy,Lenik,Napib,Kesal,Zugew,Upum","fillers","hebb",20,5473400,"0.0-4.0-16.0","0q6p85jkrtr8",NA,"Resource Lenik is sparse in country Napib.","Lenik","starts negotiating",10833,3,"is sparse in","Lenik","Kesal","Napib","2",18,0,0.333333333333333,"mining2","order","none","other","afternoon",NA,12,6,0,9.29044461621784,"name1_cor",TRUE,"name",1.59312329067521,1.46372908506565,0.999917324624719,-0.999917324624719
"72","mining","Ohuy,Lenik,Napib,Kesal,Zugew,Upum","fillers","hebb",20,5473400,"0.0-4.0-16.0","0q6p85jkrtr8",NA,"Country Napib starts negotiating.","Kesal","starts negotiating",14037,2,"starts negotiating","Napib",NA,NA,"3",18,0,0.5,"mining3","none","other",NA,"afternoon",NA,12,6,0,9.54952321729037,"name1_cor",FALSE,"name",1.59312329067521,1.46372908506565,0.999917324624719,-0.999917324624719
"73","hacker","Uhuy,Dohod,Titho,Misug,Rothuk,Owih","analogues","hebb",7,311059,"0.0-4.0-3.0","0rn21efqotza",NA,"Hacker Uhuy writes computer code Dohod.","Uhuy","writes",22326,3,"writes","Uhuy","Dohod","Dohod","1",5,0,1,"hacker1","none","none","none","afternoon",NA,1,1,1,10.0135519873984,"name1_cor",TRUE,"name",-1.59312329067521,-1.46372908506565,-0.999917324624719,0.999917324624719
"74","hacker","Uhuy,Dohod,Titho,Misug,Rothuk,Owih","analogues","hebb",7,311059,"0.0-4.0-3.0","0rn21efqotza",NA,"Code Dohod cracks the firewall of company Titho.","Dohod","cracks sth. of",16191,3,"cracks sth. of","Dohod","Titho","Titho","2",5,0,1,"hacker2","none","none","none","afternoon",NA,1,1,1,9.69227257208719,"name1_cor",TRUE,"name",-1.59312329067521,-1.46372908506565,-0.999917324624719,0.999917324624719
"75","hacker","Uhuy,Dohod,Titho,Misug,Rothuk,Owih","analogues","hebb",7,311059,"0.0-4.0-3.0","0rn21efqotza",NA,"Company Titho suffers a data loss.","Titho","suffers sth.",19740,2,"suffers sth.","Titho",NA,NA,"3",5,0,1,"hacker3","none","none",NA,"afternoon",NA,1,1,1,9.89045297026567,"name1_cor",TRUE,"name",-1.59312329067521,-1.46372908506565,-0.999917324624719,0.999917324624719
"76","bacteria","Epnux,Eyem,Huluw,Ribi,Assit,Diaf","analogues","hebb",8,377471,"0.0-4.0-4.0","0rn21efqotza",NA,"Bacteria Epnux emits enzyme Eyem.","Epnux","emits",21558,3,"emits","Epnux","Eyem","Eyem","1",6,0,1,"bacteria1","none","none","none","afternoon",NA,2,2,0,9.97854864175801,"name1_cor",TRUE,"name",-1.30346451055245,-0.878237451039389,-0.999917324624719,-0.999917324624719
"77","bacteria","Epnux,Eyem,Huluw,Ribi,Assit,Diaf","analogues","hebb",8,377471,"0.0-4.0-4.0","0rn21efqotza",NA,"Enzyme Eyem dissolves the membrane of organ Huluw.","Eyem","dissolves sth. of",18270,3,"dissolves sth. of","Eyem","Huluw","Huluw","2",6,0,1,"bacteria2","none","none","none","afternoon",NA,2,2,0,9.81307038241166,"name1_cor",TRUE,"name",-1.30346451055245,-0.878237451039389,-0.999917324624719,-0.999917324624719
"78","bacteria","Epnux,Eyem,Huluw,Ribi,Assit,Diaf","analogues","hebb",8,377471,"0.0-4.0-4.0","0rn21efqotza",NA,"Organ Huluw fails.","Huluw","fails",16079,2,"fails","Huluw",NA,NA,"3",6,0,1,"bacteria3","none","none",NA,"afternoon",NA,2,2,0,9.68533154273296,"name1_cor",TRUE,"name",-1.30346451055245,-0.878237451039389,-0.999917324624719,-0.999917324624719
"79","pump","Eshbu,Vuloz,Rove,Hoyl,Lothe,Ihab","fillers","hebb",9,446656,"0.0-4.0-5.0","0rn21efqotza",NA,"Plumber Eshbu installs pump Vuloz.","Eshbu","installs",22068,3,"installs","Eshbu","Vuloz","Vuloz","1",7,0,1,"pump1","none","none","none","afternoon",NA,3,1,1,10.0019291878482,"name1_cor",TRUE,"name",-1.01380573042968,-1.46372908506565,0.999917324624719,0.999917324624719
"80","pump","Eshbu,Vuloz,Rove,Hoyl,Lothe,Ihab","fillers","hebb",9,446656,"0.0-4.0-5.0","0rn21efqotza",NA,"Pump Vuloz sucks water from ground Rove.","Vuloz","sucks sth. from",22160,3,"sucks sth. from","Vuloz","Rove","Rove","2",7,0,1,"pump2","none","none","none","afternoon",NA,3,1,1,10.0060892661968,"name1_cor",TRUE,"name",-1.01380573042968,-1.46372908506565,0.999917324624719,0.999917324624719
"81","pump","Eshbu,Vuloz,Rove,Hoyl,Lothe,Ihab","fillers","hebb",9,446656,"0.0-4.0-5.0","0rn21efqotza",NA,"Ground Rove dries up.","Rove","dries up",14447,2,"dries up","Rove",NA,NA,"3",7,0,1,"pump3","none","none",NA,"afternoon",NA,3,1,1,9.57831127565677,"name1_cor",TRUE,"name",-1.01380573042968,-1.46372908506565,0.999917324624719,0.999917324624719
"82","storm","Thuha,Niem,Upel,Olef,Ofes,Eefar","fillers","hebb",10,513252,"0.0-4.0-6.0","0rn21efqotza",NA,"Storm Thuha hits tree Niem.","Thuha","hits",17740,3,"hits","Thuha","Niem","Niem","1",8,0,1,"storm1","none","none","none","afternoon",NA,4,2,0,9.78363362406065,"name1_cor",TRUE,"name",-0.724146950306915,-0.878237451039389,0.999917324624719,-0.999917324624719
"83","storm","Thuha,Niem,Upel,Olef,Ofes,Eefar","fillers","hebb",10,513252,"0.0-4.0-6.0","0rn21efqotza",NA,"Tree Niem falls on trail of route Upel.","Niem","falls on",25580,3,"falls on","Niem","Upel","Upel","2",8,0,1,"storm2","none","none","none","afternoon",NA,4,2,0,10.1496051674102,"name1_cor",TRUE,"name",-0.724146950306915,-0.878237451039389,0.999917324624719,-0.999917324624719
"84","storm","Thuha,Niem,Upel,Olef,Ofes,Eefar","fillers","hebb",10,513252,"0.0-4.0-6.0","0rn21efqotza",NA,"Route Upel is blocked.","Upel","is blocked",12730,2,"is blocked","Upel",NA,NA,"3",8,0,1,"storm3","none","none",NA,"afternoon",NA,4,2,0,9.45179524306165,"name1_cor",TRUE,"name",-0.724146950306915,-0.878237451039389,0.999917324624719,-0.999917324624719
"85","robber","Zugew,Goxos,Ebib,Ahow,Zimob,Ottha","analogues","hebb",11,580872,"0.0-4.0-7.0","0rn21efqotza",NA,"Criminal Zugew learns about security issue Goxos.","Zimob","learns about",20041,3,"learns about","Zugew","Goxos","Goxos","1",9,0,0.666666666666667,"robber1","none","other","none","afternoon",NA,5,3,1,9.90558535061827,"name1_cor",FALSE,"name",-0.434488170184149,-0.29274581701313,-0.999917324624719,0.999917324624719
"86","robber","Zugew,Goxos,Ebib,Ahow,Zimob,Ottha","analogues","hebb",11,580872,"0.0-4.0-7.0","0rn21efqotza",NA,"Security issue Goxos suspends alarm system of museum Ebib.","Goxos","suspends sth. of",21900,3,"suspends sth. of","Goxos","Ebib","Ebib","2",9,0,1,"robber2","none","none","none","afternoon",NA,5,3,1,9.99428757686257,"name1_cor",TRUE,"name",-0.434488170184149,-0.29274581701313,-0.999917324624719,0.999917324624719
"87","robber","Zugew,Goxos,Ebib,Ahow,Zimob,Ottha","analogues","hebb",11,580872,"0.0-4.0-7.0","0rn21efqotza",NA,"Museum Ebib gets robbed.","Ebib","gets robbed",15140,2,"gets robbed","Ebib",NA,NA,"3",9,0,1,"robber3","none","none",NA,"afternoon",NA,5,3,1,9.62516157500837,"name1_cor",TRUE,"name",-0.434488170184149,-0.29274581701313,-0.999917324624719,0.999917324624719
"88","crusader","Henu,Mawi,Lenik,Afi,Hoap,Kawud","analogues","hebb",12,635679,"0.0-4.0-8.0","0rn21efqotza",NA,"Crusader group Henu buys weapon Mawi.","Henu","buys",17030,3,"buys","Henu","Mawi","Mawi","1",10,0,1,"crusader1","none","none","none","afternoon",NA,6,4,0,9.74279049183884,"name1_cor",TRUE,"name",-0.144829390061383,0.29274581701313,-0.999917324624719,-0.999917324624719
"89","crusader","Henu,Mawi,Lenik,Afi,Hoap,Kawud","analogues","hebb",12,635679,"0.0-4.0-8.0","0rn21efqotza",NA,"Weapon Mawi breaches the fortification of town Lenik.","Mawi","breaches sth. of",13033,3,"breaches sth. of","Mawi","Lenik","Lenik","2",10,0,1,"crusader2","none","none","none","afternoon",NA,6,4,0,9.47531660689233,"name1_cor",TRUE,"name",-0.144829390061383,0.29274581701313,-0.999917324624719,-0.999917324624719
"90","crusader","Henu,Mawi,Lenik,Afi,Hoap,Kawud","analogues","hebb",12,635679,"0.0-4.0-8.0","0rn21efqotza",NA,"Town Lenik is invaded.","Lenik","is invaded",14229,2,"is invaded","Lenik",NA,NA,"3",10,0,1,"crusader3","none","none",NA,"afternoon",NA,6,4,0,9.5631076910839,"name1_cor",TRUE,"name",-0.144829390061383,0.29274581701313,-0.999917324624719,-0.999917324624719
"91","neighbor","Newi,Thygef,Pobat,Awiz,Thyra,Orok","fillers","hebb",13,696996,"0.0-4.0-9.0","0rn21efqotza",NA,"Man Newi takes care of cat Thygef.","Newi","takes care of",27641,5,"takes care of","Newi","Thygef","Thygef","1",11,0,1,"neighbor1","none","none","none","afternoon",NA,7,3,1,10.227091634164,"name1_cor",TRUE,"name",0.144829390061383,-0.29274581701313,0.999917324624719,0.999917324624719
"92","neighbor","Newi,Thygef,Pobat,Awiz,Thyra,Orok","fillers","hebb",13,696996,"0.0-4.0-9.0","0rn21efqotza",NA,"Cat Thygef walks over the flowers of neighbor Pobat","Thygef","walks over sth. of",9207,3,"walks over sth. of","Thygef","Pobat","Pobat","2",11,0,1,"neighbor2","none","none","none","afternoon",NA,7,3,1,9.12782795040172,"name1_cor",TRUE,"name",0.144829390061383,-0.29274581701313,0.999917324624719,0.999917324624719
"93","neighbor","Newi,Thygef,Pobat,Awiz,Thyra,Orok","fillers","hebb",13,696996,"0.0-4.0-9.0","0rn21efqotza",NA,"Neighbor Pobat gets angry.","Pobat","gets angry",13948,2,"gets angry","Pobat",NA,NA,"3",11,0,1,"neighbor3","none","none",NA,"afternoon",NA,7,3,1,9.54316310009223,"name1_cor",TRUE,"name",0.144829390061383,-0.29274581701313,0.999917324624719,0.999917324624719
"94","mining","Gelyp,Enmob,Zishu,Zidep,Lyde,Gena","fillers","hebb",14,816637,"0.0-4.0-10.0","0rn21efqotza",NA,"Mining company Gelyp has a lot of resource Enmob.","Gelyp","has a lot of",27949,3,"has a lot of","Gelyp","Enmob","Enmob","1",12,0,1,"mining1","none","none","none","afternoon",NA,8,4,0,10.2381724785832,"name1_cor",TRUE,"name",0.434488170184149,0.29274581701313,0.999917324624719,-0.999917324624719
"95","mining","Gelyp,Enmob,Zishu,Zidep,Lyde,Gena","fillers","hebb",14,816637,"0.0-4.0-10.0","0rn21efqotza",NA,"Resource Enmob is sparse in country Zishu.","Enmob","is sparse in",14350,3,"is sparse in","Enmob","Zishu","Zishu","2",12,0,1,"mining2","none","none","none","afternoon",NA,8,4,0,9.57157490517093,"name1_cor",TRUE,"name",0.434488170184149,0.29274581701313,0.999917324624719,-0.999917324624719
"96","mining","Gelyp,Enmob,Zishu,Zidep,Lyde,Gena","fillers","hebb",14,816637,"0.0-4.0-10.0","0rn21efqotza",NA,"Country Zishu starts negotiating.","Zishu","starts negotiating",66799,2,"starts negotiating","Zishu",NA,NA,"3",12,0,1,"mining3","none","none",NA,"afternoon",NA,8,4,0,11.1094583595247,"name1_cor",TRUE,"name",0.434488170184149,0.29274581701313,0.999917324624719,-0.999917324624719
"97","lawyer","Vipal,Ohan,Ofpoz,Pide,Pishi,Evib","analogues","hebb",17,976190,"0.0-4.0-13.0","0rn21efqotza",NA,"Lawyer Vipal finds loophole Ohan.","Vipal","finds",20793,3,"finds","Vipal","Ohan","Ohan","1",15,0,1,"lawyer1","none","none","none","afternoon",NA,9,5,1,9.94241976253791,"name1_cor",TRUE,"name",0.724146950306915,0.878237451039389,-0.999917324624719,0.999917324624719
"98","lawyer","Vipal,Ohan,Ofpoz,Pide,Pishi,Evib","analogues","hebb",17,976190,"0.0-4.0-13.0","0rn21efqotza",NA,"Loophole Ohan bypasses contract of union Ofpoz.","Ohan","bypasses sth. of",12909,3,"bypasses sth. of","Ohan","Ofpoz","Ofpoz","2",15,0,1,"lawyer2","none","none","none","afternoon",NA,9,5,1,9.46575748384069,"name1_cor",TRUE,"name",0.724146950306915,0.878237451039389,-0.999917324624719,0.999917324624719
"99","lawyer","Vipal,Ohan,Ofpoz,Pide,Pishi,Evib","analogues","hebb",17,976190,"0.0-4.0-13.0","0rn21efqotza",NA,"Union Ofpoz loses a lawsuit.","Ofpoz","loses sth.",17971,2,"loses sth.","Ofpoz",NA,NA,"3",15,0,1,"lawyer3","none","none",NA,"afternoon",NA,9,5,1,9.79657027019005,"name1_cor",TRUE,"name",0.724146950306915,0.878237451039389,-0.999917324624719,0.999917324624719
"100","fox","Igoth,Upum,Ifeh,Wecin,Adjo,Uwit","analogues","hebb",18,1159165,"0.0-4.0-14.0","0rn21efqotza",NA,"Fox Igoth digs tunnel Upum.","Igoth","digs",29890,3,"digs","Igoth","Upum","Upum","1",16,0,1,"fox1","none","none","none","afternoon",NA,10,6,0,10.3053127107237,"name1_cor",TRUE,"name",1.01380573042968,1.46372908506565,-0.999917324624719,-0.999917324624719
"101","fox","Igoth,Upum,Ifeh,Wecin,Adjo,Uwit","analogues","hebb",18,1159165,"0.0-4.0-14.0","0rn21efqotza",NA,"Tunnel Upum leads to coop of chicken Ifeh.","Upum","leads to sth. of",31079,5,"leads to sth. of","Upum","Ifeh","Ifeh","2",16,0,1,"fox2","none","none","none","afternoon",NA,10,6,0,10.3443198044816,"name1_cor",TRUE,"name",1.01380573042968,1.46372908506565,-0.999917324624719,-0.999917324624719
"102","fox","Igoth,Upum,Ifeh,Wecin,Adjo,Uwit","analogues","hebb",18,1159165,"0.0-4.0-14.0","0rn21efqotza",NA,"Chicken Ifeh is devoured.","Ifeh","is devoured",111487,2,"is devoured","Ifeh",NA,NA,"3",16,0,1,"fox3","none","none",NA,"afternoon",NA,10,6,0,11.6216722407721,"name1_cor",TRUE,"name",1.01380573042968,1.46372908506565,-0.999917324624719,-0.999917324624719
"103","employee","Roze,Avyth,Vivaf,Ezol,Fozeh,Uyim","fillers","hebb",19,1253480,"0.0-4.0-15.0","0rn21efqotza",NA,"Employee Roze is assigned to project Avyth.","Roze","is assigned to",28752,3,"is assigned to","Roze","Avyth","Avyth","1",17,0,1,"employee1","none","none","none","afternoon",NA,11,5,1,10.2664973886077,"name1_cor",TRUE,"name",1.30346451055245,0.878237451039389,0.999917324624719,0.999917324624719
"104","employee","Roze,Avyth,Vivaf,Ezol,Fozeh,Uyim","fillers","hebb",19,1253480,"0.0-4.0-15.0","0rn21efqotza",NA,"Project Avyth supports agenda of manager Vivaf.","Avyth","supports sth. of",39849,4,"supports sth. of","Avyth","Vivaf","Vivaf","2",17,0,1,"employee2","none","none","none","afternoon",NA,11,5,1,10.5928776842184,"name1_cor",TRUE,"name",1.30346451055245,0.878237451039389,0.999917324624719,0.999917324624719
"105","employee","Roze,Avyth,Vivaf,Ezol,Fozeh,Uyim","fillers","hebb",19,1253480,"0.0-4.0-15.0","0rn21efqotza",NA,"Manager Vivaf gets a promotion.","Vivaf","gets a promotion",15181,2,"gets a promotion","Vivaf",NA,NA,"3",17,0,1,"employee3","none","none",NA,"afternoon",NA,11,5,1,9.62786579457671,"name1_cor",TRUE,"name",1.30346451055245,0.878237451039389,0.999917324624719,0.999917324624719
"106","farm","Wutoc,Uvman,Aid,Gabit,Soav,Napib","fillers","hebb",20,1340319,"0.0-4.0-16.0","0rn21efqotza",NA,"Farmer Wutoc purchases machine Uvman.","Wutoc","purchases",25528,3,"purchases","Wutoc","Uvman","Uvman","1",18,0,1,"farm1","none","none","none","afternoon",NA,12,6,0,10.147570339864,"name1_cor",TRUE,"name",1.59312329067521,1.46372908506565,0.999917324624719,-0.999917324624719
"107","farm","Wutoc,Uvman,Aid,Gabit,Soav,Napib","fillers","hebb",20,1340319,"0.0-4.0-16.0","0rn21efqotza",NA,"Machine Uvman can collect fruit of plant Aid.","Uvman","can collect",39235,3,"can collect","Uvman","Aid","Aid","2",18,0,1,"farm2","none","none","none","afternoon",NA,12,6,0,10.5773499716842,"name1_cor",TRUE,"name",1.59312329067521,1.46372908506565,0.999917324624719,-0.999917324624719
"108","farm","Wutoc,Uvman,Aid,Gabit,Soav,Napib","fillers","hebb",20,1340319,"0.0-4.0-16.0","0rn21efqotza",NA,"Plant Aid are harvested automatically.","Aid","are harvested automatically",11540,2,"are harvested automatically","Aid",NA,NA,"3",18,0,1,"farm3","none","none",NA,"afternoon",NA,12,6,0,9.35366119142041,"name1_cor",TRUE,"name",1.59312329067521,1.46372908506565,0.999917324624719,-0.999917324624719
"109","storm","Potho,Zimob,Vuloz,Uwit,Ohan,Turow","fillers","hebb",7,317342,"0.0-4.0-3.0","1geu3e4p83xs",NA,"Storm Potho hits tree Zimob.","Potho","hits",19220,3,"hits","Potho","Vuloz","Zimob","1",5,0,0.666666666666667,"storm1","none","none","inter-stat","afternoon",NA,1,1,1,9.86375871030713,"name1_cor",TRUE,"name",-1.59312329067521,-1.46372908506565,0.999917324624719,0.999917324624719
"110","storm","Potho,Zimob,Vuloz,Uwit,Ohan,Turow","fillers","hebb",7,317342,"0.0-4.0-3.0","1geu3e4p83xs",NA,"Tree Zimob falls on trail of route Vuloz.","Potho","falls on",16939,3,"falls on","Zimob","Zimob","Vuloz","2",5,0,0.333333333333333,"storm2","none","inter-stat","intra-stat","afternoon",NA,1,1,1,9.73743296820605,"name1_cor",FALSE,"name",-1.59312329067521,-1.46372908506565,0.999917324624719,0.999917324624719
"111","storm","Potho,Zimob,Vuloz,Uwit,Ohan,Turow","fillers","hebb",7,317342,"0.0-4.0-3.0","1geu3e4p83xs",NA,"Route Vuloz is blocked.","Zimob","is blocked",8953,2,"is blocked","Vuloz",NA,NA,"3",5,0,0.5,"storm3","none","inter-stat",NA,"afternoon",NA,1,1,1,9.09985563880091,"name1_cor",FALSE,"name",-1.59312329067521,-1.46372908506565,0.999917324624719,0.999917324624719
"112","farm","Uvman,Matmag,Vilux,Ewey,Yuxeh,Ezol","fillers","hebb",8,378882,"0.0-4.0-4.0","1geu3e4p83xs",NA,"Farmer Uvman purchases machine Matmag.","Ewey","can collect",20969,3,"purchases","Uvman","Matmag","Matmag","1",6,0,0.333333333333333,"farm1","order","other","none","afternoon",NA,2,2,0,9.95084812389597,"name1_cor",FALSE,"name",-1.30346451055245,-0.878237451039389,0.999917324624719,-0.999917324624719
"113","farm","Uvman,Matmag,Vilux,Ewey,Yuxeh,Ezol","fillers","hebb",8,378882,"0.0-4.0-4.0","1geu3e4p83xs",NA,"Machine Matmag can collect fruit of plant Vilux.","Matmag","are picked manually",11735,3,"can collect","Matmag","Ezol","Vilux","2",6,0,0.333333333333333,"farm2","order-grasyn","none","other","afternoon",NA,2,2,0,9.37041631982282,"name1_cor",TRUE,"name",-1.30346451055245,-0.878237451039389,0.999917324624719,-0.999917324624719
"114","farm","Uvman,Matmag,Vilux,Ewey,Yuxeh,Ezol","fillers","hebb",8,378882,"0.0-4.0-4.0","1geu3e4p83xs",NA,"Plant Vilux are harvested automatically.","Ewey","are harvested automatically",18268,3,"are harvested automatically","Vilux",NA,NA,"3",6,0,0.5,"farm3","none","other",NA,"afternoon",NA,2,2,0,9.81296091333657,"name1_cor",FALSE,"name",-1.30346451055245,-0.878237451039389,0.999917324624719,-0.999917324624719
"115","bacteria","Puvi,Paza,Ofpoz,Thusoth,Owih,Owmi","analogues","hebb",9,426176,"0.0-4.0-5.0","1geu3e4p83xs",NA,"Bacteria Puvi emits enzyme Paza.","Puvi","dissolves sth. of",12870,3,"emits","Puvi","Ofpoz","Paza","1",7,0,0.333333333333333,"bacteria1","order","none","inter-stat","afternoon",NA,3,1,1,9.46273199764938,"name1_cor",TRUE,"name",-1.01380573042968,-1.46372908506565,-0.999917324624719,0.999917324624719
"116","bacteria","Puvi,Paza,Ofpoz,Thusoth,Owih,Owmi","analogues","hebb",9,426176,"0.0-4.0-5.0","1geu3e4p83xs",NA,"Enzyme Paza dissolves the membrane of organ Ofpoz.","Paza","is eliminated",12625,3,"dissolves sth. of","Paza","Ofpoz","Ofpoz","2",7,0,0.666666666666667,"bacteria2","order-grasyn","none","none","afternoon",NA,3,1,1,9.44351345892757,"name1_cor",TRUE,"name",-1.01380573042968,-1.46372908506565,-0.999917324624719,0.999917324624719
"117","bacteria","Puvi,Paza,Ofpoz,Thusoth,Owih,Owmi","analogues","hebb",9,426176,"0.0-4.0-5.0","1geu3e4p83xs",NA,"Organ Ofpoz fails.","Paza","injects",11219,3,"fails","Ofpoz",NA,NA,"3",7,0,0,"bacteria3","order-grasyn","inter-stat",NA,"afternoon",NA,3,1,1,9.32545317907669,"name1_cor",FALSE,"name",-1.01380573042968,-1.46372908506565,-0.999917324624719,0.999917324624719
"118","crusader","Wutoc,Enmob,Diaf,Ubug,Roze,Lenik","analogues","hebb",10,480458,"0.0-4.0-6.0","1geu3e4p83xs",NA,"Crusader group Wutoc buys weapon Enmob.","Wutoc","buys",16391,5,"buys","Wutoc","Enmob","Enmob","1",8,0,1,"crusader1","none","none","none","afternoon",NA,4,2,0,9.70454868991874,"name1_cor",TRUE,"name",-0.724146950306915,-0.878237451039389,-0.999917324624719,-0.999917324624719
"119","crusader","Wutoc,Enmob,Diaf,Ubug,Roze,Lenik","analogues","hebb",10,480458,"0.0-4.0-6.0","1geu3e4p83xs",NA,"Weapon Enmob breaches the fortification of town Diaf.","Wutoc","acquires",11938,3,"breaches sth. of","Enmob","Enmob","Diaf","2",8,0,0,"crusader2","order-syno","inter-stat","intra-stat","afternoon",NA,4,2,0,9.38756563134539,"name1_cor",FALSE,"name",-0.724146950306915,-0.878237451039389,-0.999917324624719,-0.999917324624719
"120","crusader","Wutoc,Enmob,Diaf,Ubug,Roze,Lenik","analogues","hebb",10,480458,"0.0-4.0-6.0","1geu3e4p83xs",NA,"Town Diaf is invaded.","Enmob","is invaded",15375,2,"is invaded","Diaf",NA,NA,"3",8,0,0.5,"crusader3","none","inter-stat",NA,"afternoon",NA,4,2,0,9.64056313121007,"name1_cor",FALSE,"name",-0.724146950306915,-0.878237451039389,-0.999917324624719,-0.999917324624719
"121","mining","Ottha,Thuha,Hize,Misug,Hadith,Ifeh","fillers","hebb",11,553400,"0.0-4.0-7.0","1geu3e4p83xs",NA,"Mining company Ottha has a lot of resource Thuha.","Ottha","starts negotiating",15500,3,"has a lot of","Ottha","Hize","Thuha","1",9,0,0.333333333333333,"mining1","order","none","inter-stat","afternoon",NA,5,3,1,9.64865981695529,"name1_cor",TRUE,"name",-0.434488170184149,-0.29274581701313,0.999917324624719,0.999917324624719
"122","mining","Ottha,Thuha,Hize,Misug,Hadith,Ifeh","fillers","hebb",11,553400,"0.0-4.0-7.0","1geu3e4p83xs",NA,"Resource Thuha is sparse in country Hize.","Hize","fills in for",24971,5,"is sparse in","Thuha","Thuha","Hize","2",9,0,0,"mining2","order-grasyn","intra-stat","intra-stat","afternoon",NA,5,3,1,10.1255104761816,"name1_cor",FALSE,"name",-0.434488170184149,-0.29274581701313,0.999917324624719,0.999917324624719
"123","mining","Ottha,Thuha,Hize,Misug,Hadith,Ifeh","fillers","hebb",11,553400,"0.0-4.0-7.0","1geu3e4p83xs",NA,"Country Hize starts negotiating.","Hize","starts negotiating",21907,4,"starts negotiating","Hize",NA,NA,"3",9,0,1,"mining3","none","none",NA,"afternoon",NA,5,3,1,9.99460714590361,"name1_cor",TRUE,"name",-0.434488170184149,-0.29274581701313,0.999917324624719,0.999917324624719
"124","employee","Hosen,Ena,Mewep,Inag,Rothuk,Aid","fillers","hebb",12,607214,"0.0-4.0-8.0","1geu3e4p83xs",NA,"Employee Hosen is assigned to project Ena.","Ena","is assigned to",20610,5,"is assigned to","Hosen","Hosen","Ena","1",10,0,0.333333333333333,"employee1","none","intra-stat","intra-stat","afternoon",NA,6,4,0,9.9335801928433,"name1_cor",FALSE,"name",-0.144829390061383,0.29274581701313,0.999917324624719,-0.999917324624719
"125","employee","Hosen,Ena,Mewep,Inag,Rothuk,Aid","fillers","hebb",12,607214,"0.0-4.0-8.0","1geu3e4p83xs",NA,"Project Ena supports agenda of manager Mewep.","Hosen","is arranged to",16657,7,"supports sth. of","Ena","Inag","Mewep","2",10,0,0,"employee2","order-grasyn","inter-stat","other","afternoon",NA,6,4,0,9.72064586049529,"name1_cor",FALSE,"name",-0.144829390061383,0.29274581701313,0.999917324624719,-0.999917324624719
"126","employee","Hosen,Ena,Mewep,Inag,Rothuk,Aid","fillers","hebb",12,607214,"0.0-4.0-8.0","1geu3e4p83xs",NA,"Manager Mewep gets a promotion.","Inag","gets a bonus",5984,2,"gets a promotion","Mewep",NA,NA,"3",10,0,0,"employee3","grasyn","other",NA,"afternoon",NA,6,4,0,8.69701161799207,"name1_cor",FALSE,"name",-0.144829390061383,0.29274581701313,0.999917324624719,-0.999917324624719
"127","robber","Avyth,Hoyl,Vipal,Lothe,Mabi,Zidep","analogues","hebb",13,648812,"0.0-4.0-9.0","1geu3e4p83xs",NA,"Criminal Avyth learns about security issue Hoyl.","Hoyl","gets robbed",11747,4,"learns about","Avyth","Lothe","Hoyl","1",11,0,0,"robber1","order","intra-stat","other","afternoon",NA,7,3,1,9.37143829231851,"name1_cor",FALSE,"name",0.144829390061383,-0.29274581701313,-0.999917324624719,0.999917324624719
"128","robber","Avyth,Hoyl,Vipal,Lothe,Mabi,Zidep","analogues","hebb",13,648812,"0.0-4.0-9.0","1geu3e4p83xs",NA,"Security issue Hoyl suspends alarm system of museum Vipal.","Lothe","starts looking",11657,3,"suspends sth. of","Hoyl","Mabi","Vipal","2",11,0,0,"robber2","order-grasyn","other","other","afternoon",NA,7,3,1,9.3637479186055,"name1_cor",FALSE,"name",0.144829390061383,-0.29274581701313,-0.999917324624719,0.999917324624719
"129","robber","Avyth,Hoyl,Vipal,Lothe,Mabi,Zidep","analogues","hebb",13,648812,"0.0-4.0-9.0","1geu3e4p83xs",NA,"Museum Vipal gets robbed.","Hoyl","is hijacked",7658,2,"gets robbed","Vipal",NA,NA,"3",11,0,0,"robber3","grasyn","inter-stat",NA,"afternoon",NA,7,3,1,8.94363670590959,"name1_cor",FALSE,"name",0.144829390061383,-0.29274581701313,-0.999917324624719,0.999917324624719
"130","hacker","Gena,Uyim,Eshov,Kewos,Soav,Ahow","analogues","hebb",14,702735,"0.0-4.0-10.0","1geu3e4p83xs",NA,"Hacker Gena writes computer code Uyim.","Gena","writes",18922,4,"writes","Gena","Uyim","Uyim","1",12,0,1,"hacker1","none","none","none","afternoon",NA,8,4,0,9.84813339240405,"name1_cor",TRUE,"name",0.434488170184149,0.29274581701313,-0.999917324624719,-0.999917324624719
"131","hacker","Gena,Uyim,Eshov,Kewos,Soav,Ahow","analogues","hebb",14,702735,"0.0-4.0-10.0","1geu3e4p83xs",NA,"Code Uyim cracks the firewall of company Eshov.","Eshov","cracks sth. of",15189,3,"cracks sth. of","Uyim","Soav","Eshov","2",12,0,0.333333333333333,"hacker2","none","intra-stat","other","afternoon",NA,8,4,0,9.62839259558982,"name1_cor",FALSE,"name",0.434488170184149,0.29274581701313,-0.999917324624719,-0.999917324624719
"132","hacker","Gena,Uyim,Eshov,Kewos,Soav,Ahow","analogues","hebb",14,702735,"0.0-4.0-10.0","1geu3e4p83xs",NA,"Company Eshov suffers a data loss.","Soav","suffers sth.",9234,2,"suffers sth.","Eshov",NA,NA,"3",12,0,0.5,"hacker3","none","other",NA,"afternoon",NA,8,4,0,9.13075589263334,"name1_cor",FALSE,"name",0.434488170184149,0.29274581701313,-0.999917324624719,-0.999917324624719
"133","pump","Olag,Felac,Upno,Pishi,Goxos,Dohod","fillers","hebb",17,819146,"0.0-4.0-13.0","1geu3e4p83xs",NA,"Plumber Olag installs pump Felac.","Upno","sucks sth. from",16750,5,"installs","Olag","Olag","Felac","1",15,0,0,"pump1","order","inter-stat","intra-stat","afternoon",NA,9,5,1,9.72621323696369,"name1_cor",FALSE,"name",0.724146950306915,0.878237451039389,0.999917324624719,0.999917324624719
"134","pump","Olag,Felac,Upno,Pishi,Goxos,Dohod","fillers","hebb",17,819146,"0.0-4.0-13.0","1geu3e4p83xs",NA,"Pump Felac sucks water from ground Upno.","Olag","builds",8767,3,"sucks sth. from","Felac","Upno","Upno","2",15,0,0.333333333333333,"pump2","order-syno","inter-stat","none","afternoon",NA,9,5,1,9.0788640091878,"name1_cor",FALSE,"name",0.724146950306915,0.878237451039389,0.999917324624719,0.999917324624719
"135","pump","Olag,Felac,Upno,Pishi,Goxos,Dohod","fillers","hebb",17,819146,"0.0-4.0-13.0","1geu3e4p83xs",NA,"Ground Upno dries up.","Upno","dries up",7093,2,"dries up","Upno",NA,NA,"3",15,0,1,"pump3","none","none",NA,"afternoon",NA,9,5,1,8.86700463533357,"name1_cor",TRUE,"name",0.724146950306915,0.878237451039389,0.999917324624719,0.999917324624719
"136","neighbor","Meuf,Hoap,Gelyp,Igoth,Uhuy,Niem","fillers","hebb",18,892182,"0.0-4.0-14.0","1geu3e4p83xs",NA,"Man Meuf takes care of cat Hoap.","Hoap","is feeding",28610,6,"takes care of","Meuf","Igoth","Hoap","1",16,0,0,"neighbor1","grasyn","intra-stat","other","afternoon",NA,10,6,0,10.261546538247,"name1_cor",FALSE,"name",1.01380573042968,1.46372908506565,0.999917324624719,-0.999917324624719
"137","neighbor","Meuf,Hoap,Gelyp,Igoth,Uhuy,Niem","fillers","hebb",18,892182,"0.0-4.0-14.0","1geu3e4p83xs",NA,"Cat Hoap walks over the flowers of neighbor Gelyp","Igoth","strays over to",20829,3,"walks over sth. of","Hoap","Gelyp","Gelyp","2",16,0,0.333333333333333,"neighbor2","grasyn","other","none","afternoon",NA,10,6,0,9.94414953425502,"name1_cor",FALSE,"name",1.01380573042968,1.46372908506565,0.999917324624719,-0.999917324624719
"138","neighbor","Meuf,Hoap,Gelyp,Igoth,Uhuy,Niem","fillers","hebb",18,892182,"0.0-4.0-14.0","1geu3e4p83xs",NA,"Neighbor Gelyp gets angry.","Gelyp","goes over sth. of",13016,2,"gets angry","Gelyp",NA,NA,"3",16,0,0.5,"neighbor3","order-syno","none",NA,"afternoon",NA,10,6,0,9.47401147446646,"name1_cor",TRUE,"name",1.01380573042968,1.46372908506565,0.999917324624719,-0.999917324624719
"139","lawyer","Mawi,Dugoz,Wecin,Upum,Wehif,Newi","analogues","hebb",19,957591,"0.0-4.0-15.0","1geu3e4p83xs",NA,"Lawyer Mawi finds loophole Dugoz.","Mawi","meets",13141,3,"finds","Mawi","Dugoz","Dugoz","1",17,0,0.666666666666667,"lawyer1","grasyn","none","none","afternoon",NA,11,5,1,9.48356848745781,"name1_cor",TRUE,"name",1.30346451055245,0.878237451039389,-0.999917324624719,0.999917324624719
"140","lawyer","Mawi,Dugoz,Wecin,Upum,Wehif,Newi","analogues","hebb",19,957591,"0.0-4.0-15.0","1geu3e4p83xs",NA,"Loophole Dugoz bypasses contract of union Wecin.","Dugoz","bypasses sth. of",28611,3,"bypasses sth. of","Dugoz","Wehif","Wecin","2",17,0,0.666666666666667,"lawyer2","none","none","other","afternoon",NA,11,5,1,10.2615814892283,"name1_cor",TRUE,"name",1.30346451055245,0.878237451039389,-0.999917324624719,0.999917324624719
"141","lawyer","Mawi,Dugoz,Wecin,Upum,Wehif,Newi","analogues","hebb",19,957591,"0.0-4.0-15.0","1geu3e4p83xs",NA,"Union Wecin loses a lawsuit.","Wehif","finds",13078,2,"loses sth.","Wecin",NA,NA,"3",17,0,0,"lawyer3","order","other",NA,"afternoon",NA,11,5,1,9.47876316948915,"name1_cor",FALSE,"name",1.30346451055245,0.878237451039389,-0.999917324624719,0.999917324624719
"142","fox","Titho,Ihab,Upel,Evib,Ilres,Thyra","analogues","hebb",20,1015452,"0.0-4.0-16.0","1geu3e4p83xs",NA,"Fox Titho digs tunnel Ihab.","Ilres","wants",31579,3,"digs","Titho","Upel","Ihab","1",18,0,0,"fox1","grasyn","other","inter-stat","afternoon",NA,12,6,0,10.3602792878096,"name1_cor",FALSE,"name",1.59312329067521,1.46372908506565,-0.999917324624719,-0.999917324624719
"143","fox","Titho,Ihab,Upel,Evib,Ilres,Thyra","analogues","hebb",20,1015452,"0.0-4.0-16.0","1geu3e4p83xs",NA,"Tunnel Ihab leads to coop of chicken Upel.","Upel","burrow",9094,3,"leads to sth. of","Ihab","Ihab","Upel","2",18,0,0,"fox2","order-syno","intra-stat","intra-stat","afternoon",NA,12,6,0,9.11548009095222,"name1_cor",FALSE,"name",1.59312329067521,1.46372908506565,-0.999917324624719,-0.999917324624719
"144","fox","Titho,Ihab,Upel,Evib,Ilres,Thyra","analogues","hebb",20,1015452,"0.0-4.0-16.0","1geu3e4p83xs",NA,"Chicken Upel is devoured.","Ilres","is missing",6609,2,"is devoured","Upel",NA,NA,"3",18,0,0,"fox3","grasyn","other",NA,"afternoon",NA,12,6,0,8.79633893284573,"name1_cor",FALSE,"name",1.59312329067521,1.46372908506565,-0.999917324624719,-0.999917324624719
"145","fox","Paza,Adjo,Diaf,Gelyp,Upum,Ilres","analogues","hebb",7,512101,"0.0-4.0-3.0","1jxmswrvo6gh",NA,"Fox Paza digs tunnel Adjo.","Paza","wants",47403,3,"digs","Paza","Adjo","Adjo","1",5,0,0.666666666666667,"fox1","grasyn","none","none","morning",NA,1,1,1,10.7664618923083,"name1_cor",TRUE,"name",-1.59312329067521,-1.46372908506565,-0.999917324624719,0.999917324624719
"146","fox","Paza,Adjo,Diaf,Gelyp,Upum,Ilres","analogues","hebb",7,512101,"0.0-4.0-3.0","1jxmswrvo6gh",NA,"Tunnel Adjo leads to coop of chicken Diaf.","Adjo","is missing",20922,3,"leads to sth. of","Adjo","Upum","Diaf","2",5,0,0.333333333333333,"fox2","order-grasyn","none","other","morning",NA,1,1,1,9.94860431133925,"name1_cor",TRUE,"name",-1.59312329067521,-1.46372908506565,-0.999917324624719,0.999917324624719
"147","fox","Paza,Adjo,Diaf,Gelyp,Upum,Ilres","analogues","hebb",7,512101,"0.0-4.0-3.0","1jxmswrvo6gh",NA,"Chicken Diaf is devoured.","Upum","is devoured",7698,2,"is devoured","Diaf",NA,NA,"3",5,0,0.5,"fox3","none","other",NA,"morning",NA,1,1,1,8.94884572927805,"name1_cor",FALSE,"name",-1.59312329067521,-1.46372908506565,-0.999917324624719,0.999917324624719
"148","crusader","Potho,Titho,Zugew,Yuxeh,Fozeh,Ofpoz","analogues","hebb",8,578253,"0.0-4.0-4.0","1jxmswrvo6gh",NA,"Crusader group Potho buys weapon Titho.","Potho","is intruded",21772,3,"buys","Potho","Titho","Titho","1",6,0,0.666666666666667,"crusader1","order-syno","none","none","morning",NA,2,2,0,9.98842594905232,"name1_cor",TRUE,"name",-1.30346451055245,-0.878237451039389,-0.999917324624719,-0.999917324624719
"149","crusader","Potho,Titho,Zugew,Yuxeh,Fozeh,Ofpoz","analogues","hebb",8,578253,"0.0-4.0-4.0","1jxmswrvo6gh",NA,"Weapon Titho breaches the fortification of town Zugew.","Titho","buys",16615,3,"breaches sth. of","Titho","Fozeh","Zugew","2",6,0,0.333333333333333,"crusader2","order","none","other","morning",NA,2,2,0,9.71812136555595,"name1_cor",TRUE,"name",-1.30346451055245,-0.878237451039389,-0.999917324624719,-0.999917324624719
"150","crusader","Potho,Titho,Zugew,Yuxeh,Fozeh,Ofpoz","analogues","hebb",8,578253,"0.0-4.0-4.0","1jxmswrvo6gh",NA,"Town Zugew is invaded.","Fozeh","is invaded",17207,5,"is invaded","Zugew",NA,NA,"3",6,0,0.5,"crusader3","none","other",NA,"morning",NA,2,2,0,9.75312967094757,"name1_cor",FALSE,"name",-1.30346451055245,-0.878237451039389,-0.999917324624719,-0.999917324624719
"151","farm","Olag,Upno,Zidep,Ubug,Thisun,Orok","fillers","hebb",9,646584,"0.0-4.0-5.0","1jxmswrvo6gh",NA,"Farmer Olag purchases machine Upno.","Olag","buys",17818,3,"purchases","Olag","Zidep","Upno","1",7,0,0.333333333333333,"farm1","syno","none","inter-stat","morning",NA,3,1,1,9.78802058272741,"name1_cor",TRUE,"name",-1.01380573042968,-1.46372908506565,0.999917324624719,0.999917324624719
"152","farm","Olag,Upno,Zidep,Ubug,Thisun,Orok","fillers","hebb",9,646584,"0.0-4.0-5.0","1jxmswrvo6gh",NA,"Machine Upno can collect fruit of plant Zidep.","Zidep","purchases",30394,4,"can collect","Upno","Thisun","Zidep","2",7,0,0,"farm2","order","intra-stat","other","morning",NA,3,1,1,10.3220334001828,"name1_cor",FALSE,"name",-1.01380573042968,-1.46372908506565,0.999917324624719,0.999917324624719
"153","farm","Olag,Upno,Zidep,Ubug,Thisun,Orok","fillers","hebb",9,646584,"0.0-4.0-5.0","1jxmswrvo6gh",NA,"Plant Zidep are harvested automatically.","Zidep","are reaped mechanically",9571,3,"are harvested automatically","Zidep",NA,NA,"3",7,0,0.5,"farm3","syno","none",NA,"morning",NA,3,1,1,9.16659744902826,"name1_cor",TRUE,"name",-1.01380573042968,-1.46372908506565,0.999917324624719,0.999917324624719
"154","employee","Ribi,Pishi,Owih,Igoth,Ohuy,Ofes","fillers","hebb",10,743345,"0.0-4.0-6.0","1jxmswrvo6gh",NA,"Employee Ribi is assigned to project Pishi.","Ribi","is assigned to",26879,4,"is assigned to","Ribi","Pishi","Pishi","1",8,0,1,"employee1","none","none","none","morning",NA,4,2,0,10.1991377946371,"name1_cor",TRUE,"name",-0.724146950306915,-0.878237451039389,0.999917324624719,-0.999917324624719
"155","employee","Ribi,Pishi,Owih,Igoth,Ohuy,Ofes","fillers","hebb",10,743345,"0.0-4.0-6.0","1jxmswrvo6gh",NA,"Project Pishi supports agenda of manager Owih.","Ribi","supports sth. of",48533,5,"supports sth. of","Pishi","Pishi","Owih","2",8,0,0.333333333333333,"employee2","none","inter-stat","intra-stat","morning",NA,4,2,0,10.790019862246,"name1_cor",FALSE,"name",-0.724146950306915,-0.878237451039389,0.999917324624719,-0.999917324624719
"156","employee","Ribi,Pishi,Owih,Igoth,Ohuy,Ofes","fillers","hebb",10,743345,"0.0-4.0-6.0","1jxmswrvo6gh",NA,"Manager Owih gets a promotion.","Pishi","gets a promotion",10793,2,"gets a promotion","Owih",NA,NA,"3",8,0,0.5,"employee3","none","inter-stat",NA,"morning",NA,4,2,0,9.28674570317859,"name1_cor",FALSE,"name",-0.724146950306915,-0.878237451039389,0.999917324624719,-0.999917324624719
"157","hacker","Pide,Newi,Rothuk,Dugoz,Uwit,Mabi","analogues","hebb",11,800324,"0.0-4.0-7.0","1jxmswrvo6gh",NA,"Hacker Pide writes computer code Newi.","Pide","writes",20413,3,"writes","Pide","Mabi","Newi","1",9,0,0.666666666666667,"hacker1","none","none","other","morning",NA,5,3,1,9.92397621896344,"name1_cor",TRUE,"name",-0.434488170184149,-0.29274581701313,-0.999917324624719,0.999917324624719
"158","hacker","Pide,Newi,Rothuk,Dugoz,Uwit,Mabi","analogues","hebb",11,800324,"0.0-4.0-7.0","1jxmswrvo6gh",NA,"Code Newi cracks the firewall of company Rothuk.","Mabi","penetrates sth. of",16744,3,"cracks sth. of","Newi","Rothuk","Rothuk","2",9,0,0.333333333333333,"hacker2","syno","other","none","morning",NA,5,3,1,9.7258549852283,"name1_cor",FALSE,"name",-0.434488170184149,-0.29274581701313,-0.999917324624719,0.999917324624719
"159","hacker","Pide,Newi,Rothuk,Dugoz,Uwit,Mabi","analogues","hebb",11,800324,"0.0-4.0-7.0","1jxmswrvo6gh",NA,"Company Rothuk suffers a data loss.","Rothuk","suffers sth.",9274,2,"suffers sth.","Rothuk",NA,NA,"3",9,0,1,"hacker3","none","none",NA,"morning",NA,5,3,1,9.13507788747564,"name1_cor",TRUE,"name",-0.434488170184149,-0.29274581701313,-0.999917324624719,0.999917324624719
"160","bacteria","Niem,Vivaf,Epnux,Eshbu,Eefar,Napib","analogues","hebb",12,866008,"0.0-4.0-8.0","1jxmswrvo6gh",NA,"Bacteria Niem emits enzyme Vivaf.","Vivaf","emits",19109,3,"emits","Niem","Napib","Vivaf","1",10,0,0.333333333333333,"bacteria1","none","intra-stat","other","morning",NA,6,4,0,9.85796703723432,"name1_cor",FALSE,"name",-0.144829390061383,0.29274581701313,-0.999917324624719,-0.999917324624719
"161","bacteria","Niem,Vivaf,Epnux,Eshbu,Eefar,Napib","analogues","hebb",12,866008,"0.0-4.0-8.0","1jxmswrvo6gh",NA,"Enzyme Vivaf dissolves the membrane of organ Epnux.","Napib","expels",28491,3,"dissolves sth. of","Vivaf","Eefar","Epnux","2",10,0,0,"bacteria2","order-syno","other","other","morning",NA,6,4,0,10.2573786250982,"name1_cor",FALSE,"name",-0.144829390061383,0.29274581701313,-0.999917324624719,-0.999917324624719
"162","bacteria","Niem,Vivaf,Epnux,Eshbu,Eefar,Napib","analogues","hebb",12,866008,"0.0-4.0-8.0","1jxmswrvo6gh",NA,"Organ Epnux fails.","Eefar","dies",7545,2,"fails","Epnux",NA,NA,"3",10,0,0,"bacteria3","syno","other",NA,"morning",NA,6,4,0,8.92877290052426,"name1_cor",FALSE,"name",-0.144829390061383,0.29274581701313,-0.999917324624719,-0.999917324624719
"163","neighbor","Thuha,Turow,Owmi,Inag,Awiz,Afik","fillers","hebb",13,940269,"0.0-4.0-9.0","1jxmswrvo6gh",NA,"Man Thuha takes care of cat Turow.","Thuha","takes care of",39802,4,"takes care of","Thuha","Owmi","Turow","1",11,0,0.666666666666667,"neighbor1","none","none","inter-stat","morning",NA,7,3,1,10.5916975653163,"name1_cor",TRUE,"name",0.144829390061383,-0.29274581701313,0.999917324624719,0.999917324624719
"164","neighbor","Thuha,Turow,Owmi,Inag,Awiz,Afik","fillers","hebb",13,940269,"0.0-4.0-9.0","1jxmswrvo6gh",NA,"Cat Turow walks over the flowers of neighbor Owmi","Owmi","walks over sth. of",14811,3,"walks over sth. of","Turow","Thuha","Owmi","2",11,0,0.333333333333333,"neighbor2","none","intra-stat","inter-stat","morning",NA,7,3,1,9.6031929420335,"name1_cor",FALSE,"name",0.144829390061383,-0.29274581701313,0.999917324624719,0.999917324624719
"165","neighbor","Thuha,Turow,Owmi,Inag,Awiz,Afik","fillers","hebb",13,940269,"0.0-4.0-9.0","1jxmswrvo6gh",NA,"Neighbor Owmi gets angry.","Owmi","gets angry",9112,2,"gets angry","Owmi",NA,NA,"3",11,0,1,"neighbor3","none","none",NA,"morning",NA,7,3,1,9.11745724449613,"name1_cor",TRUE,"name",0.144829390061383,-0.29274581701313,0.999917324624719,0.999917324624719
"166","storm","Huluw,Wecin,Itbob,Evib,Kesal,Kawud","fillers","hebb",14,1008363,"0.0-4.0-10.0","1jxmswrvo6gh",NA,"Storm Huluw hits tree Wecin.","Evib","hits",18156,3,"hits","Huluw","Itbob","Wecin","1",12,0,0.333333333333333,"storm1","none","other","inter-stat","morning",NA,8,4,0,9.80681144027067,"name1_cor",FALSE,"name",0.434488170184149,0.29274581701313,0.999917324624719,-0.999917324624719
"167","storm","Huluw,Wecin,Itbob,Evib,Kesal,Kawud","fillers","hebb",14,1008363,"0.0-4.0-10.0","1jxmswrvo6gh",NA,"Tree Wecin falls on trail of route Itbob.","Itbob","hits",28503,3,"falls on","Wecin","Kesal","Itbob","2",12,0,0,"storm2","order","intra-stat","other","morning",NA,8,4,0,10.2577997072857,"name1_cor",FALSE,"name",0.434488170184149,0.29274581701313,0.999917324624719,-0.999917324624719
"168","storm","Huluw,Wecin,Itbob,Evib,Kesal,Kawud","fillers","hebb",14,1008363,"0.0-4.0-10.0","1jxmswrvo6gh",NA,"Route Itbob is blocked.","Itbob","is ruined",10901,2,"is blocked","Itbob",NA,NA,"3",12,0,0.5,"storm3","grasyn","none",NA,"morning",NA,8,4,0,9.29670153762423,"name1_cor",TRUE,"name",0.434488170184149,0.29274581701313,0.999917324624719,-0.999917324624719
"169","robber","Ahow,Wutoc,Afi,Reok,Wehif,Felac","analogues","hebb",17,1154653,"0.0-4.0-13.0","1jxmswrvo6gh",NA,"Criminal Ahow learns about security issue Wutoc.","Wutoc","learns about",23116,3,"learns about","Ahow","Ahow","Wutoc","1",15,0,0.333333333333333,"robber1","none","intra-stat","intra-stat","morning",NA,9,5,1,10.0483235565816,"name1_cor",FALSE,"name",0.724146950306915,0.878237451039389,-0.999917324624719,0.999917324624719
"170","robber","Ahow,Wutoc,Afi,Reok,Wehif,Felac","analogues","hebb",17,1154653,"0.0-4.0-13.0","1jxmswrvo6gh",NA,"Security issue Wutoc suspends alarm system of museum Afi.","Wutoc","is hijacked",22856,3,"suspends sth. of","Wutoc","Reok","Afi","2",15,0,0.333333333333333,"robber2","order-grasyn","none","other","morning",NA,9,5,1,10.0370126951411,"name1_cor",TRUE,"name",0.724146950306915,0.878237451039389,-0.999917324624719,0.999917324624719
"171","robber","Ahow,Wutoc,Afi,Reok,Wehif,Felac","analogues","hebb",17,1154653,"0.0-4.0-13.0","1jxmswrvo6gh",NA,"Museum Afi gets robbed.","Reok","endures loss",11680,2,"gets robbed","Afi",NA,NA,"3",15,0,0,"robber3","syno","other",NA,"morning",NA,9,5,1,9.3657188691557,"name1_cor",FALSE,"name",0.724146950306915,0.878237451039389,-0.999917324624719,0.999917324624719
"172","lawyer","Hize,Ena,Rivo,Upel,Lenik,Olef","analogues","hebb",18,1210302,"0.0-4.0-14.0","1jxmswrvo6gh",NA,"Lawyer Hize finds loophole Ena.","Ena","finds",23407,3,"finds","Hize","Hize","Ena","1",16,0,0.333333333333333,"lawyer1","none","intra-stat","intra-stat","morning",NA,10,6,0,10.0608331232599,"name1_cor",FALSE,"name",1.01380573042968,1.46372908506565,-0.999917324624719,-0.999917324624719
"173","lawyer","Hize,Ena,Rivo,Upel,Lenik,Olef","analogues","hebb",18,1210302,"0.0-4.0-14.0","1jxmswrvo6gh",NA,"Loophole Ena bypasses contract of union Rivo.","Hize","bypasses sth. of",13528,3,"bypasses sth. of","Ena","Rivo","Rivo","2",16,0,0.666666666666667,"lawyer2","none","inter-stat","none","morning",NA,10,6,0,9.51259080860336,"name1_cor",FALSE,"name",1.01380573042968,1.46372908506565,-0.999917324624719,-0.999917324624719
"174","lawyer","Hize,Ena,Rivo,Upel,Lenik,Olef","analogues","hebb",18,1210302,"0.0-4.0-14.0","1jxmswrvo6gh",NA,"Union Rivo loses a lawsuit.","Rivo","loses sth.",8159,2,"loses sth.","Rivo",NA,NA,"3",16,0,1,"lawyer3","none","none",NA,"morning",NA,10,6,0,9.00699944795815,"name1_cor",TRUE,"name",1.01380573042968,1.46372908506565,-0.999917324624719,-0.999917324624719
"175","pump","Hoyl,Romap,Gena,Vuloz,Meuf,Yoges","fillers","hebb",19,1256513,"0.0-4.0-15.0","1jxmswrvo6gh",NA,"Plumber Hoyl installs pump Romap.","Meuf","installs",18534,3,"installs","Hoyl","Hoyl","Romap","1",17,0,0.333333333333333,"pump1","none","other","intra-stat","morning",NA,11,5,1,9.82741611558483,"name1_cor",FALSE,"name",1.30346451055245,0.878237451039389,0.999917324624719,0.999917324624719
"176","pump","Hoyl,Romap,Gena,Vuloz,Meuf,Yoges","fillers","hebb",19,1256513,"0.0-4.0-15.0","1jxmswrvo6gh",NA,"Pump Romap sucks water from ground Gena.","Hoyl","sucks sth. from",9812,3,"sucks sth. from","Romap","Romap","Gena","2",17,0,0.333333333333333,"pump2","none","inter-stat","intra-stat","morning",NA,11,5,1,9.19146331620649,"name1_cor",FALSE,"name",1.30346451055245,0.878237451039389,0.999917324624719,0.999917324624719
"177","pump","Hoyl,Romap,Gena,Vuloz,Meuf,Yoges","fillers","hebb",19,1256513,"0.0-4.0-15.0","1jxmswrvo6gh",NA,"Ground Gena dries up.","Romap","dries up",7303,2,"dries up","Gena",NA,NA,"3",17,0,0.5,"pump3","none","inter-stat",NA,"morning",NA,11,5,1,8.89617742227481,"name1_cor",FALSE,"name",1.30346451055245,0.878237451039389,0.999917324624719,0.999917324624719
"178","mining","Hadith,Assit,Lothe,Puvi,Hosen,Dohod","fillers","hebb",20,1340286,"0.0-4.0-16.0","1jxmswrvo6gh",NA,"Mining company Hadith has a lot of resource Assit.","Assit","fills in for",45029,4,"has a lot of","Hadith","Puvi","Assit","1",18,0,0,"mining1","grasyn","intra-stat","other","morning",NA,12,6,0,10.7150842132956,"name1_cor",FALSE,"name",1.59312329067521,1.46372908506565,0.999917324624719,-0.999917324624719
"179","mining","Hadith,Assit,Lothe,Puvi,Hosen,Dohod","fillers","hebb",20,1340286,"0.0-4.0-16.0","1jxmswrvo6gh",NA,"Resource Assit is sparse in country Lothe.","Puvi","has a lot of",16537,3,"is sparse in","Assit","Hosen","Lothe","2",18,0,0,"mining2","order","other","other","morning",NA,12,6,0,9.71341604228211,"name1_cor",FALSE,"name",1.59312329067521,1.46372908506565,0.999917324624719,-0.999917324624719
"180","mining","Hadith,Assit,Lothe,Puvi,Hosen,Dohod","fillers","hebb",20,1340286,"0.0-4.0-16.0","1jxmswrvo6gh",NA,"Country Lothe starts negotiating.","Hosen","starts negotiating",11647,2,"starts negotiating","Lothe",NA,NA,"3",18,0,0.5,"mining3","none","other",NA,"morning",NA,12,6,0,9.36288977043647,"name1_cor",FALSE,"name",1.59312329067521,1.46372908506565,0.999917324624719,-0.999917324624719
"181","employee","Gena,Saly,Uyim,Hoyl,Dugoz,Romap","fillers","hebb",7,492373,"0.0-4.0-3.0","1pt1nou79von",NA,"Employee Gena is assigned to project Saly.","Gena","is assigned to",24718,3,"is assigned to","Gena","Saly","Saly","1",5,0,1,"employee1","none","none","none","afternoon",NA,1,1,1,10.1153274576789,"name1_cor",TRUE,"name",-1.59312329067521,-1.46372908506565,0.999917324624719,0.999917324624719
"182","employee","Gena,Saly,Uyim,Hoyl,Dugoz,Romap","fillers","hebb",7,492373,"0.0-4.0-3.0","1pt1nou79von",NA,"Project Saly supports agenda of manager Uyim.","Saly","is assigned to",27733,3,"supports sth. of","Saly","Uyim","Uyim","2",5,0,0.666666666666667,"employee2","order","none","none","afternoon",NA,1,1,1,10.2304143763138,"name1_cor",TRUE,"name",-1.59312329067521,-1.46372908506565,0.999917324624719,0.999917324624719
"183","employee","Gena,Saly,Uyim,Hoyl,Dugoz,Romap","fillers","hebb",7,492373,"0.0-4.0-3.0","1pt1nou79von",NA,"Manager Uyim gets a promotion.","Uyim","gets a promotion",11662,2,"gets a promotion","Uyim",NA,NA,"3",5,0,1,"employee3","none","none",NA,"afternoon",NA,1,1,1,9.36417671669105,"name1_cor",TRUE,"name",-1.59312329067521,-1.46372908506565,0.999917324624719,0.999917324624719
"184","storm","Kesal,Ohuy,Vuloz,Gabit,Wecin,Meuf","fillers","hebb",8,557089,"0.0-4.0-4.0","1pt1nou79von",NA,"Storm Kesal hits tree Ohuy.","Kesal","hits",28630,3,"hits","Kesal","Ohuy","Ohuy","1",6,0,1,"storm1","none","none","none","afternoon",NA,2,2,0,10.262245325879,"name1_cor",TRUE,"name",-1.30346451055245,-0.878237451039389,0.999917324624719,-0.999917324624719
"185","storm","Kesal,Ohuy,Vuloz,Gabit,Wecin,Meuf","fillers","hebb",8,557089,"0.0-4.0-4.0","1pt1nou79von",NA,"Tree Ohuy falls on trail of route Vuloz.","Ohuy","falls on",15366,3,"falls on","Ohuy","Vuloz","Vuloz","2",6,0,1,"storm2","none","none","none","afternoon",NA,2,2,0,9.63997763205533,"name1_cor",TRUE,"name",-1.30346451055245,-0.878237451039389,0.999917324624719,-0.999917324624719
"186","storm","Kesal,Ohuy,Vuloz,Gabit,Wecin,Meuf","fillers","hebb",8,557089,"0.0-4.0-4.0","1pt1nou79von",NA,"Route Vuloz is blocked.","Vuloz","is blocked",10217,2,"is blocked","Vuloz",NA,NA,"3",6,0,1,"storm3","none","none",NA,"afternoon",NA,2,2,0,9.23190614989074,"name1_cor",TRUE,"name",-1.30346451055245,-0.878237451039389,0.999917324624719,-0.999917324624719
"187","lawyer","Olef,Ihab,Eefar,Ofpoz,Henu,Assit","analogues","hebb",9,670176,"0.0-4.0-5.0","1pt1nou79von",NA,"Lawyer Olef finds loophole Ihab.","Ihab","detects",50945,3,"finds","Olef","Olef","Ihab","1",7,0,0,"lawyer1","syno","intra-stat","intra-stat","afternoon",NA,3,1,1,10.8385215272274,"name1_cor",FALSE,"name",-1.01380573042968,-1.46372908506565,-0.999917324624719,0.999917324624719
"188","lawyer","Olef,Ihab,Eefar,Ofpoz,Henu,Assit","analogues","hebb",9,670176,"0.0-4.0-5.0","1pt1nou79von",NA,"Loophole Ihab bypasses contract of union Eefar.","Olef","overrides sth. of",29198,3,"bypasses sth. of","Ihab","Eefar","Eefar","2",7,0,0.333333333333333,"lawyer2","syno","inter-stat","none","afternoon",NA,3,1,1,10.2818897410946,"name1_cor",FALSE,"name",-1.01380573042968,-1.46372908506565,-0.999917324624719,0.999917324624719
"189","lawyer","Olef,Ihab,Eefar,Ofpoz,Henu,Assit","analogues","hebb",9,670176,"0.0-4.0-5.0","1pt1nou79von",NA,"Union Eefar loses a lawsuit.","Ihab","loses sth.",22440,2,"loses sth.","Eefar",NA,NA,"3",7,0,0.5,"lawyer3","none","inter-stat",NA,"afternoon",NA,3,1,1,10.0186449219236,"name1_cor",FALSE,"name",-1.01380573042968,-1.46372908506565,-0.999917324624719,0.999917324624719
"190","crusader","Vipal,Zishu,Diaf,Idog,Turow,Ena","analogues","hebb",10,740480,"0.0-4.0-6.0","1pt1nou79von",NA,"Crusader group Vipal buys weapon Zishu.","Diaf","buys",28843,3,"buys","Vipal","Zishu","Zishu","1",8,0,0.666666666666667,"crusader1","none","inter-stat","none","afternoon",NA,4,2,0,10.2696572780367,"name1_cor",FALSE,"name",-0.724146950306915,-0.878237451039389,-0.999917324624719,-0.999917324624719
"191","crusader","Vipal,Zishu,Diaf,Idog,Turow,Ena","analogues","hebb",10,740480,"0.0-4.0-6.0","1pt1nou79von",NA,"Weapon Zishu breaches the fortification of town Diaf.","Zishu","buys",16974,3,"breaches sth. of","Zishu","Diaf","Diaf","2",8,0,0.666666666666667,"crusader2","order","none","none","afternoon",NA,4,2,0,9.7394969524269,"name1_cor",TRUE,"name",-0.724146950306915,-0.878237451039389,-0.999917324624719,-0.999917324624719
"192","crusader","Vipal,Zishu,Diaf,Idog,Turow,Ena","analogues","hebb",10,740480,"0.0-4.0-6.0","1pt1nou79von",NA,"Town Diaf is invaded.","Diaf","is invaded",13982,2,"is invaded","Diaf",NA,NA,"3",8,0,1,"crusader3","none","none",NA,"afternoon",NA,4,2,0,9.54559758504085,"name1_cor",TRUE,"name",-0.724146950306915,-0.878237451039389,-0.999917324624719,-0.999917324624719
"193","farm","Thisun,Hize,Orok,Mabi,Lyde,Puvi","fillers","hebb",11,815020,"0.0-4.0-7.0","1pt1nou79von",NA,"Farmer Thisun purchases machine Hize.","Thisun","purchases",18607,3,"purchases","Thisun","Hize","Hize","1",9,0,1,"farm1","none","none","none","afternoon",NA,5,3,1,9.83134687475845,"name1_cor",TRUE,"name",-0.434488170184149,-0.29274581701313,0.999917324624719,0.999917324624719
"194","farm","Thisun,Hize,Orok,Mabi,Lyde,Puvi","fillers","hebb",11,815020,"0.0-4.0-7.0","1pt1nou79von",NA,"Machine Hize can collect fruit of plant Orok.","Hize","are picked manually",28830,3,"can collect","Hize","Thisun","Orok","2",9,0,0.333333333333333,"farm2","order-grasyn","none","inter-stat","afternoon",NA,5,3,1,10.2692064761218,"name1_cor",TRUE,"name",-0.434488170184149,-0.29274581701313,0.999917324624719,0.999917324624719
"195","farm","Thisun,Hize,Orok,Mabi,Lyde,Puvi","fillers","hebb",11,815020,"0.0-4.0-7.0","1pt1nou79von",NA,"Plant Orok are harvested automatically.","Orok","are harvested automatically",16598,2,"are harvested automatically","Orok",NA,NA,"3",9,0,1,"farm3","none","none",NA,"afternoon",NA,5,3,1,9.71709773156622,"name1_cor",TRUE,"name",-0.434488170184149,-0.29274581701313,0.999917324624719,0.999917324624719
"196","pump","Itbob,Eshov,Ebib,Kawud,Adjo,Ezol","fillers","hebb",12,885204,"0.0-4.0-8.0","1pt1nou79von",NA,"Plumber Itbob installs pump Eshov.","Itbob","installs",25469,3,"installs","Itbob","Eshov","Eshov","1",10,0,1,"pump1","none","none","none","afternoon",NA,6,4,0,10.1452565679735,"name1_cor",TRUE,"name",-0.144829390061383,0.29274581701313,0.999917324624719,-0.999917324624719
"197","pump","Itbob,Eshov,Ebib,Kawud,Adjo,Ezol","fillers","hebb",12,885204,"0.0-4.0-8.0","1pt1nou79von",NA,"Pump Eshov sucks water from ground Ebib.","Eshov","sucks sth. from",21342,3,"sucks sth. from","Eshov","Ebib","Ebib","2",10,0,1,"pump2","none","none","none","afternoon",NA,6,4,0,9.96847909604357,"name1_cor",TRUE,"name",-0.144829390061383,0.29274581701313,0.999917324624719,-0.999917324624719
"198","pump","Itbob,Eshov,Ebib,Kawud,Adjo,Ezol","fillers","hebb",12,885204,"0.0-4.0-8.0","1pt1nou79von",NA,"Ground Ebib dries up.","Ezol","dries up",12869,2,"dries up","Ebib",NA,NA,"3",10,0,0.5,"pump3","none","other",NA,"afternoon",NA,6,4,0,9.46265430059017,"name1_cor",FALSE,"name",-0.144829390061383,0.29274581701313,0.999917324624719,-0.999917324624719
"199","bacteria","Yoges,Titho,Afi,Zimob,Eyem,Rove","analogues","hebb",13,971780,"0.0-4.0-9.0","1pt1nou79von",NA,"Bacteria Yoges emits enzyme Titho.","Yoges","emits",32858,6,"emits","Yoges","Titho","Titho","1",11,0,1,"bacteria1","none","none","none","afternoon",NA,7,3,1,10.3999809589919,"name1_cor",TRUE,"name",0.144829390061383,-0.29274581701313,-0.999917324624719,0.999917324624719
"200","bacteria","Yoges,Titho,Afi,Zimob,Eyem,Rove","analogues","hebb",13,971780,"0.0-4.0-9.0","1pt1nou79von",NA,"Enzyme Titho dissolves the membrane of organ Afi.","Titho","dissolves sth. of",25476,3,"dissolves sth. of","Titho","Yoges","Afi","2",11,0,0.666666666666667,"bacteria2","none","none","inter-stat","afternoon",NA,7,3,1,10.1455313633508,"name1_cor",TRUE,"name",0.144829390061383,-0.29274581701313,-0.999917324624719,0.999917324624719
"201","bacteria","Yoges,Titho,Afi,Zimob,Eyem,Rove","analogues","hebb",13,971780,"0.0-4.0-9.0","1pt1nou79von",NA,"Organ Afi fails.","Zimob","fails",17733,2,"fails","Afi",NA,NA,"3",11,0,0.5,"bacteria3","none","other",NA,"afternoon",NA,7,3,1,9.78323897993995,"name1_cor",FALSE,"name",0.144829390061383,-0.29274581701313,-0.999917324624719,0.999917324624719
"202","fox","Ofes,Pobat,Ribi,Awiz,Rothuk,Pide","analogues","hebb",14,1041320,"0.0-4.0-10.0","1pt1nou79von",NA,"Fox Ofes digs tunnel Pobat.","Ofes","digs",20327,3,"digs","Ofes","Pobat","Pobat","1",12,0,1,"fox1","none","none","none","afternoon",NA,8,4,0,9.919754525,"name1_cor",TRUE,"name",0.434488170184149,0.29274581701313,-0.999917324624719,-0.999917324624719
"203","fox","Ofes,Pobat,Ribi,Awiz,Rothuk,Pide","analogues","hebb",14,1041320,"0.0-4.0-10.0","1pt1nou79von",NA,"Tunnel Pobat leads to coop of chicken Ribi.","Pide","leads to sth. of",23767,3,"leads to sth. of","Pobat","Ribi","Ribi","2",12,0,0.666666666666667,"fox2","none","other","none","afternoon",NA,8,4,0,10.0760954171424,"name1_cor",FALSE,"name",0.434488170184149,0.29274581701313,-0.999917324624719,-0.999917324624719
"204","fox","Ofes,Pobat,Ribi,Awiz,Rothuk,Pide","analogues","hebb",14,1041320,"0.0-4.0-10.0","1pt1nou79von",NA,"Chicken Ribi is devoured.","Ribi","is devoured",14942,2,"is devoured","Ribi",NA,NA,"3",12,0,1,"fox3","none","none",NA,"afternoon",NA,8,4,0,9.61199824174139,"name1_cor",TRUE,"name",0.434488170184149,0.29274581701313,-0.999917324624719,-0.999917324624719
"205","neighbor","Wehif,Uwit,Avyth,Ahow,Ohan,Aid","fillers","hebb",17,1216490,"0.0-4.0-13.0","1pt1nou79von",NA,"Man Wehif takes care of cat Uwit.","Wehif","takes care of",26861,3,"takes care of","Wehif","Uwit","Uwit","1",15,0,1,"neighbor1","none","none","none","afternoon",NA,9,5,1,10.198467927469,"name1_cor",TRUE,"name",0.724146950306915,0.878237451039389,0.999917324624719,0.999917324624719
"206","neighbor","Wehif,Uwit,Avyth,Ahow,Ohan,Aid","fillers","hebb",17,1216490,"0.0-4.0-13.0","1pt1nou79von",NA,"Cat Uwit walks over the flowers of neighbor Avyth","Uwit","looks after",21973,3,"walks over sth. of","Uwit","Avyth","Avyth","2",15,0,0.666666666666667,"neighbor2","order-syno","none","none","afternoon",NA,9,5,1,9.99761521526083,"name1_cor",TRUE,"name",0.724146950306915,0.878237451039389,0.999917324624719,0.999917324624719
"207","neighbor","Wehif,Uwit,Avyth,Ahow,Ohan,Aid","fillers","hebb",17,1216490,"0.0-4.0-13.0","1pt1nou79von",NA,"Neighbor Avyth gets angry.","Avyth","gets angry",11574,2,"gets angry","Avyth",NA,NA,"3",15,0,1,"neighbor3","none","none",NA,"afternoon",NA,9,5,1,9.35660287895444,"name1_cor",TRUE,"name",0.724146950306915,0.878237451039389,0.999917324624719,0.999917324624719
"208","mining","Ubug,Owih,Uhuy,Ilres,Epnux,Thuha","fillers","hebb",18,1288211,"0.0-4.0-14.0","1pt1nou79von",NA,"Mining company Ubug has a lot of resource Owih.","Uhuy","is rarely found in",27798,3,"has a lot of","Ubug","Owih","Owih","1",16,0,0.333333333333333,"mining1","order-syno","inter-stat","none","afternoon",NA,10,6,0,10.2327553278087,"name1_cor",FALSE,"name",1.01380573042968,1.46372908506565,0.999917324624719,-0.999917324624719
"209","mining","Ubug,Owih,Uhuy,Ilres,Epnux,Thuha","fillers","hebb",18,1288211,"0.0-4.0-14.0","1pt1nou79von",NA,"Resource Owih is sparse in country Uhuy.","Owih","is sparse in",19878,3,"is sparse in","Owih","Uhuy","Uhuy","2",16,0,1,"mining2","none","none","none","afternoon",NA,10,6,0,9.89741917713452,"name1_cor",TRUE,"name",1.01380573042968,1.46372908506565,0.999917324624719,-0.999917324624719
"210","mining","Ubug,Owih,Uhuy,Ilres,Epnux,Thuha","fillers","hebb",18,1288211,"0.0-4.0-14.0","1pt1nou79von",NA,"Country Uhuy starts negotiating.","Uhuy","starts negotiating",13541,2,"starts negotiating","Uhuy",NA,NA,"3",16,0,1,"mining3","none","none",NA,"afternoon",NA,10,6,0,9.51355124604559,"name1_cor",TRUE,"name",1.01380573042968,1.46372908506565,0.999917324624719,-0.999917324624719
"211","hacker","Yuxeh,Hadith,Ewey,Thygef,Paza,Mawi","analogues","hebb",19,1353364,"0.0-4.0-15.0","1pt1nou79von",NA,"Hacker Yuxeh writes computer code Hadith.","Yuxeh","writes",23699,3,"writes","Yuxeh","Ewey","Hadith","1",17,0,0.666666666666667,"hacker1","none","none","inter-stat","afternoon",NA,11,5,1,10.0732303271232,"name1_cor",TRUE,"name",1.30346451055245,0.878237451039389,-0.999917324624719,0.999917324624719
"212","hacker","Yuxeh,Hadith,Ewey,Thygef,Paza,Mawi","analogues","hebb",19,1353364,"0.0-4.0-15.0","1pt1nou79von",NA,"Code Hadith cracks the firewall of company Ewey.","Hadith","cracks sth. of",15600,3,"cracks sth. of","Hadith","Ewey","Ewey","2",17,0,1,"hacker2","none","none","none","afternoon",NA,11,5,1,9.65509029374725,"name1_cor",TRUE,"name",1.30346451055245,0.878237451039389,-0.999917324624719,0.999917324624719
"213","hacker","Yuxeh,Hadith,Ewey,Thygef,Paza,Mawi","analogues","hebb",19,1353364,"0.0-4.0-15.0","1pt1nou79von",NA,"Company Ewey suffers a data loss.","Ewey","suffers sth.",15350,2,"suffers sth.","Ewey",NA,NA,"3",17,0,1,"hacker3","none","none",NA,"afternoon",NA,11,5,1,9.6389358974732,"name1_cor",TRUE,"name",1.30346451055245,0.878237451039389,-0.999917324624719,0.999917324624719
"214","robber","Enmob,Rivo,Molash,Huluw,Upno,Thusoth","analogues","hebb",20,1432861,"0.0-4.0-16.0","1pt1nou79von",NA,"Criminal Enmob learns about security issue Rivo.","Enmob","suspends sth. of",28030,3,"learns about","Enmob","Rivo","Rivo","1",18,0,0.666666666666667,"robber1","order","none","none","afternoon",NA,12,6,0,10.2410663195838,"name1_cor",TRUE,"name",1.59312329067521,1.46372908506565,-0.999917324624719,-0.999917324624719
"215","robber","Enmob,Rivo,Molash,Huluw,Upno,Thusoth","analogues","hebb",20,1432861,"0.0-4.0-16.0","1pt1nou79von",NA,"Security issue Rivo suspends alarm system of museum Molash.","Rivo","gets robbed",24468,3,"suspends sth. of","Rivo","Molash","Molash","2",18,0,0.666666666666667,"robber2","order","none","none","afternoon",NA,12,6,0,10.1051622892347,"name1_cor",TRUE,"name",1.59312329067521,1.46372908506565,-0.999917324624719,-0.999917324624719
"216","robber","Enmob,Rivo,Molash,Huluw,Upno,Thusoth","analogues","hebb",20,1432861,"0.0-4.0-16.0","1pt1nou79von",NA,"Museum Molash gets robbed.","Molash","gets robbed",16495,2,"gets robbed","Molash",NA,NA,"3",18,0,1,"robber3","none","none",NA,"afternoon",NA,12,6,0,9.71087320625674,"name1_cor",TRUE,"name",1.59312329067521,1.46372908506565,-0.999917324624719,-0.999917324624719
"217","mining","Dugoz,Lothe,Ubug,Potho,Orok,Gabit","fillers","hebb",7,217664,"0.0-4.0-3.0","2ogc1k57zcp8",NA,"Mining company Dugoz has a lot of resource Lothe.","Dugoz","has a lot of",10715,3,"has a lot of","Dugoz","Lothe","Lothe","1",5,0,1,"mining1","none","none","none","afternoon",NA,1,1,1,9.2794932306645,"name1_cor",TRUE,"name",-1.59312329067521,-1.46372908506565,0.999917324624719,0.999917324624719
"218","mining","Dugoz,Lothe,Ubug,Potho,Orok,Gabit","fillers","hebb",7,217664,"0.0-4.0-3.0","2ogc1k57zcp8",NA,"Resource Lothe is sparse in country Ubug.","Lothe","is sparse in",10721,3,"is sparse in","Lothe","Ubug","Ubug","2",5,0,1,"mining2","none","none","none","afternoon",NA,1,1,1,9.28005298438748,"name1_cor",TRUE,"name",-1.59312329067521,-1.46372908506565,0.999917324624719,0.999917324624719
"219","mining","Dugoz,Lothe,Ubug,Potho,Orok,Gabit","fillers","hebb",7,217664,"0.0-4.0-3.0","2ogc1k57zcp8",NA,"Country Ubug starts negotiating.","Ubug","starts negotiating",6491,3,"starts negotiating","Ubug",NA,NA,"3",5,0,1,"mining3","none","none",NA,"afternoon",NA,1,1,1,8.77832592863448,"name1_cor",TRUE,"name",-1.59312329067521,-1.46372908506565,0.999917324624719,0.999917324624719
"220","storm","Meuf,Ohuy,Lenik,Mewep,Ezol,Yuxeh","fillers","hebb",8,259168,"0.0-4.0-4.0","2ogc1k57zcp8",NA,"Storm Meuf hits tree Ohuy.","Meuf","hits",13473,3,"hits","Meuf","Ohuy","Ohuy","1",6,0,1,"storm1","none","none","none","afternoon",NA,2,2,0,9.50851718152061,"name1_cor",TRUE,"name",-1.30346451055245,-0.878237451039389,0.999917324624719,-0.999917324624719
"221","storm","Meuf,Ohuy,Lenik,Mewep,Ezol,Yuxeh","fillers","hebb",8,259168,"0.0-4.0-4.0","2ogc1k57zcp8",NA,"Tree Ohuy falls on trail of route Lenik.","Ohuy","falls on",9363,3,"falls on","Ohuy","Lenik","Lenik","2",6,0,1,"storm2","none","none","none","afternoon",NA,2,2,0,9.1446278286108,"name1_cor",TRUE,"name",-1.30346451055245,-0.878237451039389,0.999917324624719,-0.999917324624719
"222","storm","Meuf,Ohuy,Lenik,Mewep,Ezol,Yuxeh","fillers","hebb",8,259168,"0.0-4.0-4.0","2ogc1k57zcp8",NA,"Route Lenik is blocked.","Lenik","is blocked",8160,3,"is blocked","Lenik",NA,NA,"3",6,0,1,"storm3","none","none",NA,"afternoon",NA,2,2,0,9.00712198946924,"name1_cor",TRUE,"name",-1.30346451055245,-0.878237451039389,0.999917324624719,-0.999917324624719
"223","bacteria","Afi,Pishi,Upno,Reok,Ilres,Misug","analogues","hebb",9,298919,"0.0-4.0-5.0","2ogc1k57zcp8",NA,"Bacteria Afi emits enzyme Pishi.","Afi","emits",10880,4,"emits","Afi","Pishi","Pishi","1",7,0,1,"bacteria1","none","none","none","afternoon",NA,3,1,1,9.29477342795101,"name1_cor",TRUE,"name",-1.01380573042968,-1.46372908506565,-0.999917324624719,0.999917324624719
"224","bacteria","Afi,Pishi,Upno,Reok,Ilres,Misug","analogues","hebb",9,298919,"0.0-4.0-5.0","2ogc1k57zcp8",NA,"Enzyme Pishi dissolves the membrane of organ Upno.","Pishi","dissolves sth. of",12715,4,"dissolves sth. of","Pishi","Upno","Upno","2",7,0,1,"bacteria2","none","none","none","afternoon",NA,3,1,1,9.45061632203069,"name1_cor",TRUE,"name",-1.01380573042968,-1.46372908506565,-0.999917324624719,0.999917324624719
"225","bacteria","Afi,Pishi,Upno,Reok,Ilres,Misug","analogues","hebb",9,298919,"0.0-4.0-5.0","2ogc1k57zcp8",NA,"Organ Upno fails.","Upno","fails",5649,2,"fails","Upno",NA,NA,"3",7,0,1,"bacteria3","none","none",NA,"afternoon",NA,3,1,1,8.63941082414049,"name1_cor",TRUE,"name",-1.01380573042968,-1.46372908506565,-0.999917324624719,0.999917324624719
"226","lawyer","Uyim,Lyde,Hosen,Niem,Itbob,Enmob","analogues","hebb",10,335835,"0.0-4.0-6.0","2ogc1k57zcp8",NA,"Lawyer Uyim finds loophole Lyde.","Uyim","finds",10079,3,"finds","Uyim","Lyde","Lyde","1",8,0,1,"lawyer1","none","none","none","afternoon",NA,4,2,0,9.21830854162536,"name1_cor",TRUE,"name",-0.724146950306915,-0.878237451039389,-0.999917324624719,-0.999917324624719
"227","lawyer","Uyim,Lyde,Hosen,Niem,Itbob,Enmob","analogues","hebb",10,335835,"0.0-4.0-6.0","2ogc1k57zcp8",NA,"Loophole Lyde bypasses contract of union Hosen.","Lyde","bypasses sth. of",10292,3,"bypasses sth. of","Lyde","Hosen","Hosen","2",8,0,1,"lawyer2","none","none","none","afternoon",NA,4,2,0,9.23921933152656,"name1_cor",TRUE,"name",-0.724146950306915,-0.878237451039389,-0.999917324624719,-0.999917324624719
"228","lawyer","Uyim,Lyde,Hosen,Niem,Itbob,Enmob","analogues","hebb",10,335835,"0.0-4.0-6.0","2ogc1k57zcp8",NA,"Union Hosen loses a lawsuit.","Hosen","loses sth.",6039,2,"loses sth.","Hosen",NA,NA,"3",8,0,1,"lawyer3","none","none",NA,"afternoon",NA,4,2,0,8.70615929092886,"name1_cor",TRUE,"name",-0.724146950306915,-0.878237451039389,-0.999917324624719,-0.999917324624719
"229","neighbor","Henu,Roze,Kawud,Afik,Assit,Gena","fillers","hebb",11,372063,"0.0-4.0-7.0","2ogc1k57zcp8",NA,"Man Henu takes care of cat Roze.","Henu","takes care of",9097,3,"takes care of","Henu","Roze","Roze","1",9,0,1,"neighbor1","none","none","none","afternoon",NA,5,3,1,9.11580988812995,"name1_cor",TRUE,"name",-0.434488170184149,-0.29274581701313,0.999917324624719,0.999917324624719
"230","neighbor","Henu,Roze,Kawud,Afik,Assit,Gena","fillers","hebb",11,372063,"0.0-4.0-7.0","2ogc1k57zcp8",NA,"Cat Roze walks over the flowers of neighbor Kawud","Roze","walks over sth. of",9286,3,"walks over sth. of","Roze","Kawud","Kawud","2",9,0,1,"neighbor2","none","none","none","afternoon",NA,5,3,1,9.13637085177601,"name1_cor",TRUE,"name",-0.434488170184149,-0.29274581701313,0.999917324624719,0.999917324624719
"231","neighbor","Henu,Roze,Kawud,Afik,Assit,Gena","fillers","hebb",11,372063,"0.0-4.0-7.0","2ogc1k57zcp8",NA,"Neighbor Kawud gets angry.","Kawud","gets angry",7339,2,"gets angry","Kawud",NA,NA,"3",9,0,1,"neighbor3","none","none",NA,"afternoon",NA,5,3,1,8.90109412160856,"name1_cor",TRUE,"name",-0.434488170184149,-0.29274581701313,0.999917324624719,0.999917324624719
"232","employee","Matmag,Uhuy,Molash,Fozeh,Uvman,Mawi","fillers","hebb",12,409681,"0.0-4.0-8.0","2ogc1k57zcp8",NA,"Employee Matmag is assigned to project Uhuy.","Matmag","is assigned to",8240,3,"is assigned to","Matmag","Uhuy","Uhuy","1",10,0,1,"employee1","none","none","none","afternoon",NA,6,4,0,9.01687697476338,"name1_cor",TRUE,"name",-0.144829390061383,0.29274581701313,0.999917324624719,-0.999917324624719
"233","employee","Matmag,Uhuy,Molash,Fozeh,Uvman,Mawi","fillers","hebb",12,409681,"0.0-4.0-8.0","2ogc1k57zcp8",NA,"Project Uhuy supports agenda of manager Molash.","Uhuy","supports sth. of",11600,3,"supports sth. of","Uhuy","Molash","Molash","2",10,0,1,"employee2","none","none","none","afternoon",NA,6,4,0,9.35884658027541,"name1_cor",TRUE,"name",-0.144829390061383,0.29274581701313,0.999917324624719,-0.999917324624719
"234","employee","Matmag,Uhuy,Molash,Fozeh,Uvman,Mawi","fillers","hebb",12,409681,"0.0-4.0-8.0","2ogc1k57zcp8",NA,"Manager Molash gets a promotion.","Molash","gets a promotion",7271,2,"gets a promotion","Molash",NA,NA,"3",10,0,1,"employee3","none","none",NA,"afternoon",NA,6,4,0,8.89178663585731,"name1_cor",TRUE,"name",-0.144829390061383,0.29274581701313,0.999917324624719,-0.999917324624719
"235","hacker","Thyra,Hoyl,Kewos,Aid,Ebib,Adjo","analogues","hebb",13,448972,"0.0-4.0-9.0","2ogc1k57zcp8",NA,"Hacker Thyra writes computer code Hoyl.","Thyra","writes",13699,4,"writes","Thyra","Hoyl","Hoyl","1",11,0,1,"hacker1","none","none","none","afternoon",NA,7,3,1,9.52515111181622,"name1_cor",TRUE,"name",0.144829390061383,-0.29274581701313,-0.999917324624719,0.999917324624719
"236","hacker","Thyra,Hoyl,Kewos,Aid,Ebib,Adjo","analogues","hebb",13,448972,"0.0-4.0-9.0","2ogc1k57zcp8",NA,"Code Hoyl cracks the firewall of company Kewos.","Hoyl","cracks sth. of",8820,3,"cracks sth. of","Hoyl","Kewos","Kewos","2",11,0,1,"hacker2","none","none","none","afternoon",NA,7,3,1,9.08489052125877,"name1_cor",TRUE,"name",0.144829390061383,-0.29274581701313,-0.999917324624719,0.999917324624719
"237","hacker","Thyra,Hoyl,Kewos,Aid,Ebib,Adjo","analogues","hebb",13,448972,"0.0-4.0-9.0","2ogc1k57zcp8",NA,"Company Kewos suffers a data loss.","Kewos","suffers sth.",6265,2,"suffers sth.","Kewos",NA,NA,"3",11,0,1,"hacker3","none","none",NA,"afternoon",NA,7,3,1,8.74289347151214,"name1_cor",TRUE,"name",0.144829390061383,-0.29274581701313,-0.999917324624719,0.999917324624719
"238","crusader","Goxos,Puvi,Zimob,Soav,Ofes,Hadith","analogues","hebb",14,491269,"0.0-4.0-10.0","2ogc1k57zcp8",NA,"Crusader group Goxos buys weapon Puvi.","Goxos","breaches sth. of",10499,3,"buys","Goxos","Puvi","Puvi","1",12,0,0.666666666666667,"crusader1","order","none","none","afternoon",NA,8,4,0,9.25913053614561,"name1_cor",TRUE,"name",0.434488170184149,0.29274581701313,-0.999917324624719,-0.999917324624719
"239","crusader","Goxos,Puvi,Zimob,Soav,Ofes,Hadith","analogues","hebb",14,491269,"0.0-4.0-10.0","2ogc1k57zcp8",NA,"Weapon Puvi breaches the fortification of town Zimob.","Puvi","is infiltrated",10871,3,"breaches sth. of","Puvi","Zimob","Zimob","2",12,0,0.666666666666667,"crusader2","order-grasyn","none","none","afternoon",NA,8,4,0,9.29394595583098,"name1_cor",TRUE,"name",0.434488170184149,0.29274581701313,-0.999917324624719,-0.999917324624719
"240","crusader","Goxos,Puvi,Zimob,Soav,Ofes,Hadith","analogues","hebb",14,491269,"0.0-4.0-10.0","2ogc1k57zcp8",NA,"Town Zimob is invaded.","Zimob","is invaded",10421,2,"is invaded","Zimob",NA,NA,"3",12,0,1,"crusader3","none","none",NA,"afternoon",NA,8,4,0,9.25167423546916,"name1_cor",TRUE,"name",0.434488170184149,0.29274581701313,-0.999917324624719,-0.999917324624719
"241","farm","Rove,Wecin,Eefar,Zugew,Igoth,Gelyp","fillers","hebb",17,584971,"0.0-4.0-13.0","2ogc1k57zcp8",NA,"Farmer Rove purchases machine Wecin.","Rove","purchases",12008,3,"purchases","Rove","Wecin","Wecin","1",15,0,1,"farm1","none","none","none","afternoon",NA,9,5,1,9.39341164766068,"name1_cor",TRUE,"name",0.724146950306915,0.878237451039389,0.999917324624719,0.999917324624719
"242","farm","Rove,Wecin,Eefar,Zugew,Igoth,Gelyp","fillers","hebb",17,584971,"0.0-4.0-13.0","2ogc1k57zcp8",NA,"Machine Wecin can collect fruit of plant Eefar.","Wecin","can collect",8577,3,"can collect","Wecin","Eefar","Eefar","2",15,0,1,"farm2","none","none","none","afternoon",NA,9,5,1,9.05695606507683,"name1_cor",TRUE,"name",0.724146950306915,0.878237451039389,0.999917324624719,0.999917324624719
"243","farm","Rove,Wecin,Eefar,Zugew,Igoth,Gelyp","fillers","hebb",17,584971,"0.0-4.0-13.0","2ogc1k57zcp8",NA,"Plant Eefar are harvested automatically.","Eefar","are harvested automatically",6021,2,"are harvested automatically","Eefar",NA,NA,"3",15,0,1,"farm3","none","none",NA,"afternoon",NA,9,5,1,8.70317470904168,"name1_cor",TRUE,"name",0.724146950306915,0.878237451039389,0.999917324624719,0.999917324624719
"244","pump","Eshov,Paza,Thygef,Ena,Pobat,Zishu","fillers","hebb",18,619364,"0.0-4.0-14.0","2ogc1k57zcp8",NA,"Plumber Eshov installs pump Paza.","Eshov","installs",9321,3,"installs","Eshov","Paza","Paza","1",16,0,1,"pump1","none","none","none","afternoon",NA,10,6,0,9.14013247693269,"name1_cor",TRUE,"name",1.01380573042968,1.46372908506565,0.999917324624719,-0.999917324624719
"245","pump","Eshov,Paza,Thygef,Ena,Pobat,Zishu","fillers","hebb",18,619364,"0.0-4.0-14.0","2ogc1k57zcp8",NA,"Pump Paza sucks water from ground Thygef.","Paza","sucks sth. from",8259,3,"sucks sth. from","Paza","Thygef","Thygef","2",16,0,1,"pump2","none","none","none","afternoon",NA,10,6,0,9.01917986651502,"name1_cor",TRUE,"name",1.01380573042968,1.46372908506565,0.999917324624719,-0.999917324624719
"246","pump","Eshov,Paza,Thygef,Ena,Pobat,Zishu","fillers","hebb",18,619364,"0.0-4.0-14.0","2ogc1k57zcp8",NA,"Ground Thygef dries up.","Thygef","dries up",6306,2,"dries up","Thygef",NA,NA,"3",16,0,1,"pump3","none","none",NA,"afternoon",NA,10,6,0,8.74941540666365,"name1_cor",TRUE,"name",1.01380573042968,1.46372908506565,0.999917324624719,-0.999917324624719
"247","robber","Felac,Awiz,Newi,Vipal,Diaf,Epnux","analogues","hebb",19,651906,"0.0-4.0-15.0","2ogc1k57zcp8",NA,"Criminal Felac learns about security issue Awiz.","Felac","learns about",8014,3,"learns about","Felac","Awiz","Awiz","1",17,0,1,"robber1","none","none","none","afternoon",NA,11,5,1,8.98907006504365,"name1_cor",TRUE,"name",1.30346451055245,0.878237451039389,-0.999917324624719,0.999917324624719
"248","robber","Felac,Awiz,Newi,Vipal,Diaf,Epnux","analogues","hebb",19,651906,"0.0-4.0-15.0","2ogc1k57zcp8",NA,"Security issue Awiz suspends alarm system of museum Newi.","Awiz","suspends sth. of",7568,3,"suspends sth. of","Awiz","Newi","Newi","2",17,0,1,"robber2","none","none","none","afternoon",NA,11,5,1,8.93181623730917,"name1_cor",TRUE,"name",1.30346451055245,0.878237451039389,-0.999917324624719,0.999917324624719
"249","robber","Felac,Awiz,Newi,Vipal,Diaf,Epnux","analogues","hebb",19,651906,"0.0-4.0-15.0","2ogc1k57zcp8",NA,"Museum Newi gets robbed.","Newi","gets robbed",6452,2,"gets robbed","Newi",NA,NA,"3",17,0,1,"robber3","none","none",NA,"afternoon",NA,11,5,1,8.77230041793584,"name1_cor",TRUE,"name",1.30346451055245,0.878237451039389,-0.999917324624719,0.999917324624719
"250","fox","Napib,Owmi,Thuha,Vilux,Upel,Idog","analogues","hebb",20,726956,"0.0-4.0-16.0","2ogc1k57zcp8",NA,"Fox Napib digs tunnel Owmi.","Napib","digs",21176,5,"digs","Napib","Owmi","Owmi","1",18,0,1,"fox1","none","none","none","afternoon",NA,12,6,0,9.96067096606358,"name1_cor",TRUE,"name",1.59312329067521,1.46372908506565,-0.999917324624719,-0.999917324624719
